NAME:,walk_1_1.csv,,
EXPERIMENT TIME:,22-05-22 20:00,,
ACTIVITY TYPE:,Walking,,
COUNT OF ACTUAL STEPS,113,,
   ,,,
Time [sec],ACC X,ACC Y,ACC Z
63.04,-4.2,8.75,2.12
63.078,-4.39,9.02,2.12
63.115,-5.06,10.08,2.94
63.154,-5.57,11.1,2.9
63.192,-4.04,10.43,4.79
63.231,-3.22,12.94,9.53
63.269,-1.22,8.59,6.43
63.307,-2.24,8,5.53
63.344,-4.63,6.08,5.33
63.382,-5.33,5.45,4.31
63.419,-0.75,7.18,6.28
63.457,-1.92,6.51,2.86
63.494,-2,4.08,3.1
63.532,-3.49,3.8,2.9
63.569,-7.65,6.55,1.92
63.607,-3.8,10.2,1.06
63.645,-5.96,6.98,3.49
63.683,-4.55,9.92,4.43
63.72,-6.32,10.98,5.3
63.759,-7.77,10.2,5.1
63.797,-7.02,9.57,8.08
63.835,-6.08,6.9,8.32
63.872,8.63,-0.35,12.4
63.911,-5.41,7.34,7.69
64.061,-3.14,4.59,2.16
64.098,-0.27,4.55,1.65
64.136,-1.06,5.49,0
64.173,-4.31,7.57,-0.24
64.212,-6.43,9.96,3.45
64.249,-6.59,13.89,6.86
64.288,-6.83,12.67,1.8
64.326,-2.08,13.02,7.1
64.365,-1.96,7.88,8.47
64.403,-2.31,6.08,5.84
64.44,-5.1,6.24,2.67
64.478,-2.71,6.2,2.43
64.628,-4.47,4.24,3.88
64.665,-2.47,8.24,11.14
64.704,-11.02,8.59,3.88
64.742,-4.04,8.94,4.43
64.78,-6.98,10.87,2.79
64.818,-8.04,10.98,5.37
64.857,-4.12,6.63,9.65
64.894,-0.47,6.59,7.34
64.932,-4.71,10.79,2.59
64.97,-8.39,10.71,8.28
65.009,-3.69,6.59,5.81
65.046,-3.57,5.37,0.98
65.084,-5.81,4.63,2.28
65.427,-2.82,5.53,4.12
65.465,-4.94,4.08,-0.39
65.504,-0.08,7.18,5.88
65.541,-3.3,8.75,7.73
65.579,-1.96,5.1,3.45
65.616,-3.49,3.1,1.06
65.654,-7.06,4.12,1.77
65.691,-9.81,14.67,-11.77
65.732,-5.61,6.9,7.26
65.769,-5.96,8.9,4.31
65.807,-9.34,9.34,0.86
65.958,-5.37,9.65,7.41
65.995,-7.22,9.02,8.16
66.033,-3.41,6.55,3.69
66.07,-3.73,5.26,1.84
66.108,-4.35,3.84,0.27
66.145,-2.86,4.82,0.9
66.183,-3.57,7.96,1.49
66.22,-4.55,7.81,0.55
66.258,-6.9,7.77,1.1
66.295,-7.49,12.87,6
66.334,-7.45,13.77,3.41
66.372,-5.81,13.49,6.55
66.411,-3.37,7.73,7.88
66.448,-3.37,5.1,4.75
66.486,-3.65,5.18,3.65
66.673,-4.67,4.31,2.82
66.711,-6.2,5.18,3.1
66.748,-6.43,8,4.28
66.786,-5.1,9.06,4.04
66.823,-7.81,9.92,4.16
66.861,-9.49,10.32,1.88
66.899,-5.41,9.26,7.65
66.937,-2.31,6.63,8.98
66.974,-1.29,8.24,5.14
67.012,-8,11.38,6.98
67.05,-5.06,7.49,8.71
67.164,-4.39,4.82,0.9
67.276,-4.98,7.49,0.67
67.314,-7.92,10.04,3.61
67.353,-7.34,14.08,5.88
67.391,-5.73,12.16,4.71
67.43,-2.94,11.61,14.79
67.469,-2.71,5.49,5.22
67.507,-4.98,4.86,0.78
67.544,-3.22,4.98,2.43
67.582,0.78,8.63,5.84
67.618,-4.59,7.3,7.02
67.656,-1.65,2.63,1.84
67.693,-4.51,3.57,1.69
67.731,-8.87,8.16,-10
67.846,-6.79,9.06,3.53
67.884,-10.28,10.2,2.94
67.923,-4.82,7.69,9.53
67.961,1.06,6.2,10.12
67.998,-3.49,8.75,6.04
68.036,-6.98,10,7.96
68.074,-3.84,6.32,4.24
68.112,-4.35,6.08,1.14
68.149,-5.02,4.98,1.65
68.187,-3.3,5.3,2.98
68.224,-2.16,6,1.69
68.262,-3.77,6.71,0.2
68.299,-6.35,6.98,1.37
68.337,-6.98,11.73,6.28
68.375,-7.02,13.06,4.98
68.605,-2.86,7.77,7.57
68.642,-1.73,6.86,4.86
68.68,-1.92,3.06,1.61
68.717,-4.9,4.12,2.31
68.755,-8.75,6.98,2.24
68.792,-6.43,8.24,4.82
68.83,-4.55,7.65,3.84
68.867,-8,9.69,7.37
68.905,-9.89,10.55,3.96
68.943,-5.45,8.28,7.37
68.981,0.31,6.04,6.39
69.017,-3.33,8.51,5.22
69.055,-6.59,9.81,7.53
69.092,-5.57,6.39,6.04
69.28,-4.67,7.14,-0.12
69.318,-6.63,7.85,1.41
69.356,-6.94,10.87,5.49
69.394,-7.49,14.08,4.28
69.433,-5.73,12.98,6.39
69.471,-2.98,9.34,10.71
69.51,-3.02,5.06,5.49
69.547,-4.08,4.43,3.02
69.585,-2.79,5.33,4.04
69.622,-3.14,7.85,5.37
69.884,-6.2,9.69,3.92
69.921,-8.9,11.61,4.24
69.96,-6.67,10.87,9.3
69.998,-2.28,6.83,6.08
70.036,-1.29,8.08,6.83
70.149,-4,5.33,1.61
70.187,-4.16,4.04,1.57
70.224,-4.31,4.31,1.18
70.262,-0.67,5.92,2.82
70.299,-5.33,8.47,2.04
70.412,-7.77,14.47,5.22
70.45,-7.02,13.18,6.47
70.489,-2.24,10.79,15.34
70.529,-1.8,3.77,4.59
70.566,-11.61,2.9,-4.71
70.606,-2.35,5.69,5.14
70.643,-3.77,7.61,5.81
70.681,-2.75,6.32,5.02
70.718,-2.08,1.77,1.73
70.756,-4.16,3.26,1.37
70.793,-9.34,6.75,2.71
70.831,-9.22,6.16,-0.94
70.869,-5.06,8.83,7.45
70.907,-8.12,9.53,2.67
71.021,2.9,7.96,9.81
71.058,-5.3,11.85,5.02
71.096,-8.36,9.14,7.49
71.134,-2.31,5.77,2
71.171,-1.8,5.3,1.37
71.209,-3.65,4.08,1.77
71.246,-8.32,2.2,2.35
71.284,-1.33,6.67,4.16
71.473,-5.65,14.71,11.18
71.513,-4.12,5.57,-1.73
71.551,-3.61,3.06,-0.82
71.776,14.98,0,-0.16
71.815,-9.18,7.57,4
71.853,-3.37,7.96,4.82
71.89,-5.84,10.04,5.92
72.042,3.37,8.9,6.32
72.079,-7.92,13.3,7.06
72.117,-8.12,7.96,8.16
72.155,-1.73,6.43,2.67
72.192,-1.8,4.2,3.1
72.417,-7.57,13.57,7.18
72.456,-6.32,12.36,4.24
72.494,-3.84,12.12,12.51
72.534,-3.33,5.1,5.65
72.571,-4.31,5.81,2.75
72.759,-2.55,1.77,1.73
72.796,-7.14,5.06,2.39
72.834,-2.04,0.27,-2.59
73.098,-9.34,12.04,8.79
73.137,-4.59,7.41,4.86
73.174,-2.24,7.1,0.51
73.212,-4.16,4.08,0.86
73.249,-5.02,4.24,1.84
73.287,-2.12,5.1,1.69
73.324,-2.24,6.75,-1.61
73.363,-5.57,7.73,0.43
73.4,-8.67,12.12,6.32
73.439,-8,14.32,4.98
73.478,-5.37,10.94,2.9
73.668,-4.9,6.98,6.55
73.706,-3.53,6.55,6.12
73.743,-2.71,4.51,2.28
73.781,-2.98,2.39,0.71
73.818,-9.22,9.49,-2.35
73.857,-8.43,8.36,3.88
73.894,-3.1,8.51,4.24
73.932,-6.59,9.77,2.79
73.969,-9.22,11.02,4.79
74.008,-5.88,9.96,10.12
74.046,-0.67,8.39,7.85
74.084,-3.57,9.65,4.79
74.272,-3.3,4.31,1.29
74.31,-1.41,5.81,2.35
74.347,-11.1,7.53,4.39
74.386,-6.08,7.69,1.77
74.423,-8.63,9.61,3.77
74.461,-7.92,12.63,4.04
74.499,-6.04,12.24,3.84
74.538,-4.47,11.77,15.73
74.578,-2.9,5.3,7.22
74.615,-4.51,5.45,2.71
74.653,-2.98,5.02,2.47
74.69,-2.51,7.26,5.57
74.917,-4.86,7.73,4.75
74.955,-5.61,9.53,4.79
74.992,-8.39,10.04,3.92
75.031,-6.71,9.41,7.41
75.068,-2.71,6.63,8.04
75.106,-0.98,8.75,9.53
75.143,-6,11.1,7.92
75.182,-5.14,8.39,7.02
75.219,-3.57,6.59,1.57
75.257,-4.59,4.98,1.57
75.294,-5.14,4.71,1.18
75.332,-2.43,4.98,1.45
75.369,-2.2,6.83,0.59
75.407,-4.08,7.73,0.2
75.559,-6.47,12.51,4.39
75.597,-3.65,9.41,9.49
75.635,-3.45,5.33,4.94
75.672,-4.39,5.1,3.02
75.71,-2.47,6.12,4.16
75.747,-2.59,7.85,4.47
75.785,-2.55,6.86,5.61
75.822,-2.94,3.69,3.18
75.86,-5.84,4.28,2.55
75.897,-5.65,6,3.1
75.935,-7.34,7.53,3.88
75.972,-4.75,7.65,3.1
76.01,-3.84,9.45,4.71
76.162,3.57,6,4.63
76.198,-4.55,10.36,4.79
76.237,-7.22,9.81,6.86
76.274,-3.57,6.63,3.53
76.312,-3.77,5.45,0.59
76.349,-4.82,4.98,1.14
76.387,-3.53,5.37,1.73
76.424,-2,6.75,1.77
76.462,-2.79,7.14,-0.39
76.5,-5.96,7.53,2.16
76.538,-6.75,12.91,7.41
76.576,-7.18,13.42,3.84
76.615,-7.22,10.04,3.22
76.654,-3.77,12,13.34
76.693,-2.04,5.77,6.47
76.806,-3.57,8.2,6.86
76.843,-2.43,7.34,6.67
76.881,-4.47,6.2,-0.04
76.919,-3.92,2.9,1.29
76.957,-10.87,-5.02,-5.69
76.997,-8.24,7.06,2.16
77.035,-4.12,6.35,5.33
77.072,-5.14,9.89,6.79
77.11,-8.08,10.67,4.24
77.148,-6.94,10.12,7.02
77.187,-2.75,6.2,7.81
77.224,-0.86,8.55,8.04
77.262,-6.16,10.59,6.9
77.3,-4.55,8.16,5.73
77.413,-4.71,4.51,1.92
77.45,-2.63,4.75,2.12
77.488,-4.2,7.18,-0.47
77.526,-5.1,6.9,-0.51
77.565,-6.32,8.87,4.31
77.602,-7.18,14.24,8.75
77.641,-6,13.14,4.08
77.68,-6.16,12.28,6
77.718,-3.3,7.77,8.59
77.756,-3.96,5.14,3.06
77.793,-4.63,5.3,4.16
77.831,-3.49,6.08,4.43
77.868,-2.9,7.92,5.96
77.906,-3.14,7.14,5.33
77.943,-2.67,3.8,2.16
78.133,-4.9,9.06,4.16
78.17,-8.36,9.85,2.79
78.208,-6.04,11.02,6.16
78.246,1.18,7.45,10.2
78.284,-0.63,7.65,6.28
78.321,-5.57,11.02,5.37
78.36,-5.73,8.16,8.04
78.397,-2.39,7.34,2.75
78.435,-3.37,5.49,2.24
78.472,-5.45,5.06,1.29
78.51,-2.51,5.49,2.63
78.547,-2.67,7.26,-0.24
78.586,-4.67,7.02,-0.43
78.624,-6.16,8.32,2.51
78.739,-5.73,10.94,2.28
78.777,-1.45,10.79,13.26
78.817,-1.88,6.12,7.81
78.855,-3.45,5.49,2.94
78.892,-2.28,6.08,1.37
78.93,-3.1,7.96,5.37
78.967,-2.31,6.32,5.49
79.005,-2.86,4,2.63
79.042,-4.31,4.28,2.47
79.08,-10.47,6.47,2.31
79.118,-6.39,7.88,3.92
79.156,-3.53,6.71,3.69
79.193,-3.18,8.59,5.37
79.231,-7.41,9.41,3.41
79.268,-8,10.32,4.94
79.534,-4.2,4.79,1.65
79.571,-2.24,5.81,3.41
79.609,-2.31,6.9,1.06
79.646,-3.92,6.86,-0.16
79.685,-6.32,6.75,0.55
79.722,-5.1,11.92,7.06
79.761,-6.24,13.26,4.63
79.799,-6.83,12.16,3.18
79.838,-2.47,11.41,9.49
80.026,-3.22,7.85,6.43
80.064,-1.65,5.3,4.43
80.101,-3.14,3.49,1.49
80.139,-5.53,5.06,3.18
80.176,-8.59,6.28,3.92
80.214,-4.67,7.77,5.33
80.251,-3.69,8.83,4.43
80.289,-6.2,9.53,3.77
80.326,-8.32,10,2.51
80.365,-7.88,10.71,6.67
80.404,-2.79,6.83,5.77
80.441,-2.24,9.3,4.86
80.479,-5.88,10.59,7.34
80.517,-3.53,8.04,5.14
80.63,-4.43,5.18,1.69
80.667,-2.71,5.3,1.06
80.704,-3.3,6.24,0.2
80.742,-5.22,7.85,0.2
80.78,-5.53,8.51,2.82
80.817,-5.49,12.4,5.88
80.856,-6.08,14.08,0.75
80.894,-7.53,11.1,2.75
80.933,-2.28,11.57,12.08
80.972,-1.65,5.69,4.98
81.01,-3.22,5.02,3.92
81.047,-3.8,5.53,3.22
81.272,-6.79,8.28,3.49
81.31,-3.22,7.06,4.94
81.347,-3.41,5.96,2.75
81.385,-6.83,8.9,1.73
81.422,-8.16,9.69,3.1
81.46,-3.06,8.12,10.4
81.498,1.45,7.88,8
81.535,-4.82,11.02,6.28
81.573,-9.26,9.57,8.51
81.611,-3.53,7.85,5.81
81.648,-2.86,6.94,0.63
81.686,-5.22,5.41,1.22
81.723,-4.75,4.98,1.26
81.761,-0.67,6,2.98
81.798,-2.59,7.02,-0.27
81.913,-5.81,14.55,8.08
81.95,-2.86,16.28,16.24
81.991,-2.51,8.16,4.59
82.029,-2.82,5.18,-1.57
82.067,-4.24,2.51,1.45
82.105,-7.65,8.43,4.63
82.142,0.2,8.71,8.32
82.179,-2.12,6.94,1.96
82.216,-2.51,2.16,1.49
82.254,-4.86,3.3,2.31
82.291,-6.51,7.02,4.55
82.329,-4.51,7.18,5.53
82.366,-5.26,7.34,3.45
82.404,-3.61,7.37,5.81
82.441,-8.47,9.18,3.88
82.479,-6.08,11.06,6.04
82.593,-5.49,12,8.47
82.632,-7.3,3.96,6.43
82.669,-1.77,7.3,3.26
82.707,-2.98,5.41,0.75
82.744,-4.79,4.39,1.8
82.782,-3.73,5.02,2
82.819,-2.2,6,-0.39
82.858,-3.96,6.47,-0.55
82.896,-6.55,7.37,1.65
82.934,-7.26,12.04,7.57
82.972,-7.26,14,2.31
83.011,-5.92,10.79,4.47
83.049,-1.65,10.75,16.24
83.201,-3.84,6.71,4.55
83.239,-3.41,7.06,5.61
83.276,-2.24,4.08,2.08
83.314,-3.41,4.51,3.45
83.351,-7.41,6.59,3.53
83.389,-7.26,7.06,2.59
83.426,-3.45,11.61,-10.4
83.467,-2.86,8.59,4.71
83.505,-6.86,10.59,4.43
83.543,-7.96,9.49,4.55
83.581,-3.57,8.87,7.85
83.618,-10.67,7.34,10.71
83.658,-4.98,10.47,8.04
83.696,-5.53,10.36,7.02
83.735,-3.61,8,2.79
83.772,-3.96,6.28,2.04
83.81,-4.82,4.79,1.77
83.847,-3.3,4.82,2.08
83.885,-1.84,5.77,1.61
83.922,-2.79,7.14,-0.04
83.961,-5.37,6.9,-0.16
83.999,-5.96,9.34,3.57
84.037,-5.81,13.81,7.81
84.075,-6.12,11.61,2.08
84.114,-3.8,12.51,8.79
84.152,-2.59,7.26,10.08
84.191,-3.96,5.02,2.9
84.229,-3.18,6.12,2.04
84.266,-3.33,7.1,4.79
84.304,-3.33,8.16,6.63
84.341,-2.12,5.69,4.71
84.379,-2.47,2.47,1.61
84.53,-4.28,8.39,4.2
84.567,-6.43,9.02,4.12
84.605,-8.55,10.9,3.37
84.643,-6.55,10.4,7.81
84.682,-0.82,11.49,8.75
84.72,4.86,8.28,-0.12
84.758,-4.2,11.41,6.08
84.796,-2.9,10.79,2.63
84.835,-2.04,7.41,2.9
84.872,-3.65,6.47,2.28
84.91,-3.22,5.1,1.84
84.947,-0.24,5.81,0.9
85.098,-3.65,13.93,7.3
85.137,-5.41,12.55,2.28
85.175,-6,12.16,2.31
85.214,-0.63,10.59,10.71
85.254,-1.14,6.16,7.14
85.291,-2.51,6.16,4.16
85.329,-2.2,6.75,3.06
85.366,-3.02,8.04,5.26
85.404,-1.37,6.71,4.71
85.441,-1.45,4.98,2.55
85.479,-3.53,5.18,3.84
85.516,-7.65,7.65,3.41
85.554,-6.79,7.81,4.31
85.591,-4.55,7.18,4.24
85.629,-2.51,8.79,4.94
85.666,-5.57,10.24,4.31
85.781,0.63,10.47,7.69
85.818,0.63,8.71,5.92
85.855,-5.14,11.34,5.33
85.893,-1.26,8.12,4.59
85.931,-5.73,5.06,1.92
85.968,-4.2,5.49,2.86
86.006,-2.98,5.22,1.41
86.043,0.63,5.49,3.69
86.08,-1.73,7.57,-0.16
86.118,-5.53,7.3,0.59
86.156,-4.98,8.36,3.14
86.193,-3.26,11.96,7.26
86.232,-5.45,14.04,3.3
86.27,-6.16,11.65,2.75
86.422,-3.69,5.96,3.22
86.46,-0.08,6.83,6.28
86.497,-1.92,8.43,6.79
86.535,0.16,4.59,3.61
86.571,-2.82,4.04,1.92
86.609,-6.71,6.71,3.49
86.646,-7.34,7.3,4.82
86.684,-5.88,8.43,3.1
86.721,-2.47,8.2,3.45
86.759,-4.75,9.81,6.32
86.796,-7.96,10.24,2.98
86.835,-6.71,11.06,6.39
86.873,-4.82,9.3,11.49
87.061,-3.33,6.71,2.63
87.098,-4.12,5.37,3.02
87.136,-2.08,5.22,1.61
87.173,-1.02,7.1,1.73
87.211,-3.37,7.96,-0.04
87.249,-5.18,7.92,1.53
87.287,-4.82,10.28,4.28
87.325,-3.3,14.47,6.86
87.364,-5.22,12.36,3.26
87.402,-2.39,11.92,10.04
87.442,-0.39,6.67,7.49
87.48,-2.24,5.61,2.31
87.517,-2.86,6.35,4.47
87.704,-2.75,4.59,3.8
87.742,-7.37,7.1,3.8
87.78,-7.3,7.96,5.77
87.817,-0.98,6.79,8.24
87.855,-3.73,9.45,5.14
87.892,-7.85,9.34,3.49
87.93,-6.79,10.59,4.08
87.968,-2.31,8.83,10.43
88.007,0.2,8.39,0.63
88.043,-6,12.59,3.33
88.082,-6.12,10.16,7.49
88.12,-2.59,8.04,3.41
88.158,-2.08,7.1,2.04
88.195,-3.69,6.04,2.47
88.233,-3.77,5.49,2.51
88.345,-4.2,7.61,0.75
88.383,-4.35,8.75,3.22
88.42,-4.86,12.28,7.3
88.459,-7.61,12.36,0.78
88.497,-3.92,12.36,5.84
88.536,-0.55,9.89,12.59
88.574,-2.47,6.16,5.84
88.612,-3.41,6.94,4.12
88.649,-3.06,6.2,3.57
88.687,-2.43,7.96,5.69
88.724,-2.35,7.65,6.51
88.762,-1.61,4.9,1.37
88.799,-2.2,3.37,2
88.949,-2.28,6.75,5.81
88.987,-3.96,9.1,5.77
89.024,-7.73,9.41,3.73
89.062,-6.75,10.79,3.57
89.1,-2.94,8.87,8.63
89.138,1.57,7.88,4.39
89.174,-2.9,10.08,6.04
89.213,-3.73,9.89,7.22
89.25,-1.77,8.24,4.71
89.288,-3.33,6.47,2.24
89.325,-4.9,5.33,2.9
89.363,-3.61,6.2,2.59
89.4,-0.86,6.39,3.22
89.438,-2.59,6.59,0.16
89.475,-4.55,7.81,0.27
89.627,-4.12,12.59,4.75
89.666,-1.45,13.14,14.12
89.706,-1.18,6,4.04
89.743,-3.49,4.75,1.29
89.781,-5.18,5.3,3.73
89.818,-1.73,10.59,7.49
89.857,-1.29,8.83,6
89.894,-0.75,5.65,2.79
89.932,-3.14,3.33,1.45
89.969,-6.86,5.73,2.9
90.007,-7.45,7.53,3.3
90.044,-8.12,3.18,2.2
90.082,-3.77,7.1,2.75
90.27,-1.53,6.75,5.45
90.308,-1.88,9.02,4.79
90.345,-3.37,10.04,7.37
90.384,-3.14,9.34,4.31
90.421,-4.08,7.49,2.31
90.459,-5.02,6.04,2.9
90.496,-4.47,5.65,2.16
90.534,-1.61,5.92,2.2
90.571,-3.1,6.24,-0.2
90.61,-4.51,8,0.24
90.647,-5.1,8,1.33
90.685,-5.18,10.36,3.57
90.723,-5.1,13.61,5.18
90.762,-6.79,11.57,1.57
90.8,-3.41,12.98,6.67
90.915,-3.88,6.04,1.84
90.952,-3.41,5.61,2.79
90.99,-3.1,8.2,6.12
91.027,-1.29,7.37,6.43
91.065,-2.08,4.94,1.37
91.102,-5.06,4.47,2.79
91.14,-7.45,6.32,4.9
91.177,-7.85,7.65,2.67
91.215,-4.51,6.79,1.53
91.252,-2.71,7.88,2.63
91.29,-5.02,9.77,4.94
91.327,-7.73,9.73,2.71
91.365,-8.32,9.57,3.65
91.477,-5.06,11.89,7.22
91.516,-5.22,9.73,8.67
91.554,-3.33,7.69,3.37
91.591,-3.06,6.71,1.45
91.629,-4.43,6.28,2.98
91.666,-3.1,5.96,3.26
91.704,-0.86,5.84,1.84
91.741,-2.94,6.35,-0.51
91.78,-4.39,6.94,-0.35
91.818,-5.49,8.43,2.63
91.856,-5.41,11.34,5.69
91.894,-6.16,12.98,2.24
91.933,-6.86,11.06,1.84
91.971,-1.29,9.92,11.73
92.161,-2.82,7.45,5.73
92.198,-0.67,4.24,4.86
92.236,-2.55,4.82,3.1
92.273,-13.96,-1.49,-3.37
92.314,-8,5.81,2.04
92.351,-6.83,7.61,3.06
92.389,-3.14,8,4.94
92.426,-5.73,9.14,3.92
92.464,-8.43,9.49,2.63
92.501,-5.88,10.51,7.37
92.54,0.2,8.24,10.94
92.577,-3.02,8.75,5.57
92.615,-5.41,10.16,7.45
92.804,-2.94,5.33,2.43
92.841,-2.24,5.81,0.47
92.879,-4.04,6.51,-0.24
92.917,-5.02,7.61,1.33
92.955,-5.57,8.51,3.3
92.992,-5.22,11.61,6.94
93.031,-6.04,13.42,3.3
93.069,-6.04,12.04,3.69
93.108,-2.35,10.4,11.53
93.147,-1.18,6.59,4.82
93.185,-2.82,5.73,3.45
93.222,-4.16,5.53,3.3
93.26,-2.94,7.69,6.12
93.297,0.16,8.94,4.35
93.484,-5.77,7.14,2.75
93.521,-2.71,6.98,3.57
93.559,-3.26,8.67,3.61
93.596,-7.49,8.9,4.71
93.634,-10.4,10.08,2.86
93.673,-1.45,8.43,9.81
93.711,-0.71,7.85,7.61
93.748,-2.86,9.34,6.9
93.786,-3.57,9.38,7.02
93.823,-3.33,8.67,5.33
93.861,-3.96,7.69,2.82
93.898,-4.79,6.75,3.37
94.049,-4.67,7.81,-0.16
94.088,-5.49,7.53,1.22
94.125,-5.41,10.12,4.59
94.164,-4.86,13.69,5.41
94.202,-5.26,10.67,1.57
94.241,-4.39,12.55,5.57
94.28,-1.22,10.47,12.08
94.319,-1.53,7.1,7.77
94.357,-3.22,6.98,4.75
94.394,-3.53,5.96,2.94
94.432,-2.98,7.65,5.18
94.469,-1.8,7.37,5.14
94.507,-0.98,3.61,2.08
94.544,-2.67,3.37,3.22
94.582,-7.92,6.28,3.45
94.619,-8.71,7.41,1.84
94.769,-9.61,10.2,1.65
94.808,-3.22,8.63,8.55
94.845,-0.67,7.81,6.9
94.883,-3.41,8.9,3.69
94.92,-7.1,11.26,8.08
94.959,-5.1,8.94,6.35
94.996,-1.26,7.41,1.8
95.034,-4.28,5.61,1.61
95.071,-5.02,5.37,2.39
95.109,-2.59,5.22,2.51
95.146,-1.77,6.08,-0.04
95.185,-4.04,6.63,-0.9
95.223,-6.24,8.04,2.9
95.261,-5.57,12.16,7.06
95.376,-2.08,11.65,19.02
95.416,-1.61,5.84,4.16
95.453,-1.73,4.67,-0.67
95.492,-2.55,5.96,2.94
95.53,-3.57,7.96,7.53
95.567,-2.04,7.26,7.53
95.605,-2.86,4.16,1.1
95.642,-3.45,2.94,1.18
95.68,-9.38,9.73,0
95.717,-7.49,7.73,2.55
95.755,-2.2,6.63,1.57
95.792,-2.63,8.75,6.98
95.83,-8,10.08,2.39
96.022,-5.88,10.24,7.37
96.061,-4.2,7.3,2.47
96.098,-4.75,6.67,1.88
96.136,-5.14,6.2,2.59
96.173,-3.33,6.24,2.71
96.211,-2.2,6.39,1.53
96.248,-0.71,7.73,-1.49
96.287,-6.35,6.35,-0.31
96.325,-5.88,9.14,3.26
96.363,-5.88,9.26,14.87
96.401,-6.16,13.14,2.67
96.44,-5.33,11.45,4.63
96.556,-3.61,6.47,2.28
96.593,-2.75,6.47,4.35
96.63,-4.04,8.43,6.51
96.668,-2.28,7.69,6.32
96.706,-2.2,3.65,1.33
96.743,-2.75,3.45,2.9
96.781,-8.08,7.02,3.65
96.818,-7.69,9.81,1.26
96.856,-4.9,6.79,2.31
96.893,-2.86,8.43,5.06
96.931,-6.16,10.36,5.18
96.969,-9.02,9.45,3.8
97.007,-5.14,10.87,5.73
97.045,-5.81,10.94,2.71
97.084,-1.69,8.9,5.65
97.121,-3.37,9.96,5.84
97.159,-4.31,8.51,3.73
97.196,-4.51,7.92,2
97.234,-4.82,7.02,3.33
97.346,-2.86,6.39,0.24
97.384,-4.12,7.45,-0.08
97.422,-5.18,7.65,1.41
97.46,-5.02,11.18,5.61
97.498,-4.86,13.73,6.71
97.537,-7.57,11.14,1.49
97.575,-5.22,12.59,6.39
97.614,-1.49,8.59,9.89
97.651,-2.43,5.49,4.55
97.689,-3.84,6.39,3.22
97.726,-2.98,7.69,4.71
97.764,-3.41,8.55,6.16
97.914,-9.06,9.53,1.65
97.951,-6.39,7.85,2.82
97.989,-3.92,7.41,2.59
98.026,-3.92,9.89,5.84
98.064,-8.04,10.51,3.37
98.102,-9.14,10.2,3.8
98.141,-0.31,7.96,6.86
98.178,8.04,7.41,5.69
98.215,-3.14,9.18,6.24
98.252,-5.45,10.08,5.18
98.291,-4.2,8.12,3.53
98.328,-4.51,6.67,3.14
98.366,-5.14,5.77,2.79
98.592,-4.9,11.49,5.53
98.631,-6,12.63,0.47
98.669,-6.16,13.14,4.82
98.708,-2.2,10.28,13.73
98.747,-2.79,5.88,4.47
98.785,-3.06,5.18,1.69
98.822,-1.02,6.24,3.88
98.86,-2.43,8.67,6.83
98.897,-2,7.65,6.39
98.935,-1.96,3.61,3.3
98.972,-4.55,5.18,2.16
99.01,-6.98,8.08,3.88
99.047,-6.2,7.53,3.53
99.085,-4.39,6.75,1.26
99.236,-6.71,9.89,4.9
99.273,-2.98,8.43,9.06
99.311,0.27,7.96,5.61
99.424,-2.9,7.88,2.82
99.462,-3.92,6.51,1.53
99.499,-4.75,5.41,1.84
99.537,-2.63,5.57,2.67
99.574,-2.39,6,1.37
99.612,-2.24,6.59,1.41
99.649,-4.75,7.65,0.75
99.88,-3.1,5.96,7.1
99.917,-2.98,4.79,1.33
99.955,-3.49,5.84,1.26
99.992,-3.57,8.36,6.71
100.03,-2.08,7.69,7.57
100.067,-3.96,3.8,2.51
100.105,-2.71,3.02,2.31
100.142,-5.14,1.53,4.31
100.18,-9.14,7.81,2.55
100.217,-9.53,12.83,-3.18
100.257,-4.35,8.67,4.2
100.294,-6.94,9.06,4.2
100.332,-6.43,10.24,6.24
100.37,-3.14,7.88,11.02
100.485,-6.59,10.63,8.67
100.523,-1.84,8,3.37
100.561,-2.9,6.75,1.41
100.598,-5.26,5.61,2.39
100.636,-4.31,5.49,2.43
100.673,-0.43,6.32,2.04
100.711,-3.06,6.75,-0.82
100.749,-4.71,7.41,1.26
100.787,-5.3,10.43,4.71
100.825,-5.1,12.4,5.96
100.864,-6.08,11.14,2.08
100.902,-3.06,14,10.55
100.942,0.71,6.75,18.48
100.98,-2.2,3.69,-1.06
101.093,-2.08,7.61,8.39
101.13,-1.29,6.08,3.77
101.168,-3.45,3.49,1.61
101.206,-5.96,5.57,3.06
101.243,-7.73,7.18,2.98
101.281,-5.45,7.96,3.06
101.318,-4.43,8.83,1.84
101.356,-3.8,9.73,6.47
101.393,-6.16,9.61,3.3
101.431,-7.3,10.32,4.94
101.469,-1.14,9.41,9.73
101.507,-3.06,9.61,5.73
101.544,-3.88,10.63,6.9
101.583,-2.24,7.92,4.71
101.62,-3.57,7.26,0.82
101.733,-2.71,5.41,1.8
101.77,-2.79,5.69,-0.27
101.809,-4,8.87,-2.9
101.847,-5.81,7.49,1.1
101.885,-5.02,10.9,5.61
101.923,-4.2,13.81,4.35
101.962,-6.63,10.4,0.67
102,-4.98,12.83,6.94
102.039,-1.73,8.43,13.73
102.077,-2.75,5.57,3.92
102.115,-1.33,5.69,2.71
102.152,-3.88,7.49,3.77
102.19,-3.8,8.12,6.98
102.227,-2.43,6.71,6.2
102.415,-3.77,7.81,3.02
102.452,-3.45,8.94,5.26
102.49,-6.79,9.45,3.06
102.527,-6.75,10.87,7.06
102.566,-1.77,9.69,6.43
102.603,0.9,10.36,1.61
102.641,-4.82,10.59,7.96
102.68,-4.71,8.83,6.2
102.717,-2.67,7.92,0.63
102.755,-4.04,6.39,2.31
102.792,-4.55,5.33,2.59
102.829,-2.82,4.98,1.14
102.867,-1.53,6.39,-0.16
102.906,-3.96,7.81,-0.04
102.944,-6.12,8.39,2.24
102.982,-5.81,11.89,7.22
103.02,-5.3,13.42,4.08
103.059,-4.51,13.53,7.06
103.097,-3.3,9.57,13.73
103.136,-3.69,6.59,2.94
103.173,-3.37,4.9,0.51
103.211,-5.92,8.2,6.04
103.248,-2.08,9.1,6.59
103.286,-2.08,7.77,5.53
103.323,-3.14,4.82,3.02
103.361,-4.28,3.57,1.92
103.398,-7.26,9.18,1.61
103.436,-5.02,8.98,2.98
103.473,-5.18,6.55,2.75
103.511,-2.79,8.47,5.14
103.699,0.31,8.75,7.57
103.736,-5.41,11.18,7.41
103.774,-4.39,8.2,5.18
103.812,-3.18,7.49,2.51
103.849,-4.2,6.55,2.31
103.887,-3.61,5.77,2.63
103.924,-1.73,5.61,3.73
103.962,-2.43,6.24,0.51
103.999,-4.24,7.02,-1.37
104.038,-4.86,7.73,2.31
104.075,-4.31,11.85,7.1
104.114,-6.04,12.4,3.02
104.304,-3.57,7.61,3.3
104.342,-3.8,8.75,8.32
104.38,-2.28,8.08,6.39
104.417,-1.33,4.51,2
104.455,-2.86,2.51,1.65
104.492,-8.51,6.67,3.22
104.53,-7.73,7.61,0.86
104.567,-4.51,8.24,5.06
104.605,-2.24,8.71,5.37
104.642,-6.16,9.81,5.02
104.68,-10.08,9.41,2.67
104.718,-4.79,9.14,7.92
104.756,3.18,8.51,11.69
104.793,-3.8,9.65,5.77
104.982,-4.08,5.92,2.24
105.019,-1.69,5.88,2.24
105.057,-2.98,6.83,-0.08
105.095,-4.98,7.45,-0.04
105.134,-5.73,9.06,3.33
105.171,-4.71,13.34,7.45
105.21,-6.28,12.28,0.43
105.248,-6.94,9.14,-0.86
105.287,-2.86,11.26,11.38
105.326,-2.28,6.9,9.53
105.364,-2.39,6.59,3.3
105.401,-2.16,7.1,2.12
105.439,-4.47,7.88,3.73
105.589,-6.83,8.51,3.18
105.626,-7.81,7.45,2.51
105.664,-5.37,9.02,1.65
105.701,-3.22,8.94,4.67
105.739,-5.92,10.32,4
105.777,-6.59,10.32,6.12
105.816,-4.04,8.28,7.02
105.853,1.77,8.87,4.35
105.89,-6.9,11.81,7.69
105.928,-7.34,11.1,7.02
105.967,-3.14,8.63,0.82
106.005,-3.3,5.77,1.69
106.042,-4.39,5.1,2.35
106.08,-2.94,5.33,1.73
106.117,-1.65,5.73,0.9
106.154,-2.82,7.77,0
106.268,-5.3,12.83,4.55
106.307,-5.06,12,2.9
106.345,-3.14,13.57,13.96
106.385,-1.92,6.28,6.86
106.422,-2.2,5.14,1.06
106.46,-1.96,6.94,3.41
106.497,-3.96,8,6.47
106.535,-3.33,7.45,4.55
106.572,-2.39,4.63,0
106.61,-2.31,2.98,0.67
106.647,-5.73,6.32,3.02
106.685,-8.12,7.96,2.98
106.722,-4.39,7.3,2.47
106.76,-2.79,8.63,4.16
106.797,-5.73,9.73,5.26
106.835,-8.75,10.28,4.47
106.873,-2.12,8.98,9.77
106.911,0.63,7.49,5.88
106.947,-2.31,10.12,4.9
106.986,-7.53,12.12,9.34
107.024,-3.65,7.61,4.24
107.062,-3.02,5.96,1.18
107.099,-4,4.98,1.73
107.137,-2.47,5.49,2.12
107.174,-2.43,6.28,1.02
107.212,-3.69,7.02,-0.16
107.25,-5.77,6.67,-0.31
107.289,-6.12,10.04,2.94
107.327,-5.49,13.38,6.63
107.366,-3.84,14.51,8.32
107.52,-2.08,7.14,7.14
107.558,-2.43,8.94,7.49
107.595,-2.2,7.3,5.14
107.633,-3.14,2.47,2.16
107.67,-3.37,3.53,1.69
107.708,-7.18,7.88,4.63
107.745,-6.51,8.16,0.75
107.783,-3.33,8.04,1.14
107.82,-2.79,8.2,5.45
107.858,-9.3,9.96,2.55
107.895,-10.67,10.47,5.45
107.935,-1.53,8.32,9.06
107.972,1.88,8.83,6.43
108.009,-3.26,11.1,4.47
108.16,-4.59,4.47,1.29
108.197,-3.1,4.75,1.22
108.235,-2.43,6.63,0.9
108.272,-4.2,8.12,0.63
108.31,-6.24,8.24,0.78
108.347,-6.24,10.79,3.88
108.386,-5.49,14.98,5.84
108.424,-4.39,13.22,6.51
108.463,-2.55,5.96,14.83
108.501,-3.33,4.59,1.92
108.539,-3.3,5.92,0.51
108.576,-3.06,7.1,3.84
108.614,-3.02,7.81,6.43
108.651,-3.02,7.37,5.65
108.802,-7.22,7.26,5.41
108.84,-3.84,8.12,4.94
108.877,-5.22,9.61,4.98
108.915,-8.2,9.92,3.77
108.952,-6.51,9.34,5.45
108.99,-0.78,4,9.53
109.027,1.73,7.57,3.88
109.064,-5.3,15.34,5.18
109.102,-5.06,10,8.94
109.141,-1.57,7.53,2.16
109.178,-2.59,5.81,1.8
109.216,-5.06,4.98,1.53
109.253,-4.82,5.18,1.1
109.291,-2.31,5.1,-0.67
109.406,-6.35,13.3,6.16
109.444,-6.16,14,5.33
109.483,-3.37,11.81,4.35
109.521,-1.02,10.67,20.01
109.561,-2.43,5.37,4.94
109.598,-4.63,5.02,-2.2
109.637,-0.39,5.77,5.57
109.674,-4.12,8.47,8.39
109.712,-1.57,7.06,5.73
109.749,-1.61,4.12,0.86
109.787,-5.65,3.1,-1.53
109.825,-4.98,5.26,3.45
109.863,0.63,3.49,5.73
109.899,-6.2,9.92,7.3
110.088,-3.96,9.85,5.1
110.125,-6.39,11.45,8.16
110.164,-5.1,8.51,6.43
110.201,-2.2,7.61,2.16
110.239,-4.28,5.53,2.55
110.276,-4.28,4.75,2
110.314,-1.73,4.94,2.79
110.351,-2.04,5.69,-1.53
110.39,-4.79,7.06,-1.18
110.428,-6.59,8.08,2.12
110.466,-5.57,12.94,7.73
110.505,-7.06,12.87,1.45
110.698,-10,5.57,0.86
110.737,-4.47,8.36,8.94
110.774,-1.96,6.71,4.43
110.812,-1.61,2.71,0.43
110.849,-3.06,5.02,1.65
110.887,-5.26,6.55,4.16
110.924,-5.02,7.26,4.9
110.962,-4.59,8,5.22
110.999,-6.55,9.96,5.61
111.037,-9.26,10.47,4.82
111.075,-4.51,8.51,7.96
111.113,-0.78,11.85,10.63
111.152,-4.86,11.81,6.55
111.191,-5.69,9.57,8.59
111.378,-2.28,5.26,-0.51
111.417,-3.96,6.08,-1.61
111.456,-6.32,7.69,1.1
111.493,-5.45,12.94,7.45
111.532,-6.04,13.85,4.63
111.57,-3.65,12.63,8.04
111.609,-12,11.1,11.85
111.649,-2.16,0.27,8.83
111.687,-2.98,6.75,2.47
111.724,-3.18,6.67,4
111.762,-4.16,7.92,7.02
111.799,-2.24,6.35,3.88
111.837,1.73,1.45,0.27
111.873,-3.8,2.75,1.92
111.911,-7.45,6.63,4
112.022,-2.51,9.69,3.92
112.06,-6.32,10.83,3.77
112.098,-4.9,9.41,13.53
112.137,-1.53,9.18,8.28
112.174,-4.04,10.59,5.14
112.213,-7.3,9.81,6.83
112.25,-3.49,7.88,2.98
112.288,-3.14,6.83,1.53
112.325,-5.18,5.02,3.02
112.363,-3.57,4.79,1.8
112.4,-2.12,5.49,1.02
112.438,-3.69,6.86,0.12
112.475,-4.71,6.9,-0.78
112.667,-2.94,12.47,18.16
112.707,-4.9,7.34,2.67
112.744,-2.47,7.06,0.78
112.782,-3.57,7.26,2.94
112.819,-4.2,7.77,7.18
112.857,-1.49,6.94,5.14
112.894,-2.24,3.41,-0.24
112.933,-4.67,4.9,4
112.97,-7.14,6.71,2.63
113.008,-7.65,8.43,1.96
113.045,-4.94,7.49,1.18
113.083,-1.96,9.3,6.16
113.12,-7.81,10.36,3.77
113.159,-7.14,10.12,5.18
113.272,-6.08,11.77,6.47
113.311,-7.3,8.59,4.79
113.348,-1.61,8.2,1.22
113.386,-3.73,5.49,1.49
113.423,-4.39,5.1,1.45
113.461,-1.92,4.86,1.57
113.498,-1.33,6.08,0.24
113.536,-4.28,8.32,-1.29
113.574,-7.14,8.32,1.33
113.612,-5.77,13.89,7.22
113.65,-7.14,14.2,4.31
113.689,-7.88,11.85,2.28
113.727,-2.59,11.38,12.4
113.767,-2.04,5.14,5.18
113.917,-3.53,6.67,4.31
113.954,-3.22,4.08,0.2
113.992,-2.43,4.24,2.63
114.029,-7.22,7.02,3.41
114.067,-6.28,8.59,4.75
114.104,-3.61,9.85,2.86
114.142,-4.12,8.51,4.24
114.179,-8.36,9.34,2.98
114.217,-8.9,10.12,3.41
114.256,-1.96,8.75,10.36
114.294,-0.43,7.1,6.39
114.332,-3.26,9.41,3.73
114.369,-6.83,11.41,7.1
114.408,-2.63,7.96,2.94
114.52,-4,4.71,1.45
114.558,0.08,7.34,3.18
114.594,-2.82,7.69,0.35
114.632,-6.83,7.49,0.86
114.669,-6.55,9.57,3.26
114.707,-5.65,12.04,6.35
114.745,-7.49,12.28,2
114.784,-4.39,11.53,5.1
114.822,-1.8,11.34,18.83
114.862,-2.79,5.69,4.04
114.899,-0.78,5.88,1.88
114.937,-4.2,6.59,4.47
114.974,-4.31,7.92,7.3
115.012,-1.02,7.3,5.45
115.049,-2.2,3.26,0.67
115.162,-9.26,8.63,0.98
115.199,-2.9,9.18,3.73
115.237,-3.33,9.61,4.63
115.274,-8.79,10.32,3.53
115.313,-6.28,10.67,6.71
115.351,-2.47,8.43,7.92
115.389,3.96,8.59,5.65
115.425,-5.77,11.85,7.49
115.464,-4.16,9.22,5.53
115.501,-3.26,7.96,2.12
115.539,-4.51,5.73,2.51
115.576,-5.14,5.18,2.39
115.614,-1.96,5.26,2.24
115.651,-1.77,6.35,-0.9
115.69,-4.55,7.34,-0.75
115.804,-6.63,13.42,2.86
115.843,-6.94,10.98,1.84
115.882,-3.1,13.61,13.42
115.921,-1.45,6,8.08
115.959,-2.12,5.18,2.04
115.996,-3.84,6.08,0.27
116.034,-1.92,7.77,5.81
116.071,-1.88,7.77,6.94
116.109,-1.88,4.98,3.22
116.146,-3.45,2.79,0.94
116.184,-14.71,4.12,6.28
116.222,-8.51,7.02,2
116.26,-3.37,6.75,4.28
116.297,-3.92,10.28,3.77
116.336,-6.51,10.04,4.35
116.374,-8.94,10.79,5.37
116.413,2.75,10.67,4.79
116.526,-4.35,6.75,8.36
116.564,-1.96,6.35,1.69
116.601,-3.57,5.69,2.12
116.639,-4.55,5.02,2.04
116.676,-2.08,5.1,2.24
116.714,-1.84,6.71,-0.71
116.752,-5.14,7.37,0.16
116.79,-7.37,8.36,1.65
116.827,-4.98,12.36,6.39
116.866,-6.16,13.02,3.22
116.904,-1.18,14.83,10.87
116.944,-0.75,6.86,13.38
116.983,-4.43,4.63,0.71
117.094,-3.22,8.28,5.84
117.132,-2.35,4.51,3.33
117.169,-2.79,3.84,2.08
117.207,-7.34,5.96,2.75
117.244,-7.81,3.45,-1.45
117.283,-9.57,11.73,-1.26
117.322,-2.79,9.22,3.73
117.36,-5.61,10.08,4.55
117.398,-7.14,9.96,5.65
117.436,-3.61,9.1,10.12
117.474,0.86,7.37,10.4
117.512,-5.96,12,7.49
117.55,-6.67,10.55,7.3
117.589,-3.88,7.85,-0.08
117.627,-3.61,5.73,1.49
117.777,-3.3,7.92,-0.55
117.816,-6.94,7.22,0.16
117.853,-6.16,11.26,7.92
117.892,-6.98,14.47,3.84
117.931,-6.55,11.49,2.08
117.969,-1.53,12.71,15.22
118.009,-1.61,6.39,5.33
118.046,-2.63,5.33,0.63
118.084,-3.1,6.51,2.9
118.121,-3.57,7.53,5.69
118.159,-1.49,6.55,7.57
118.196,-1.65,3.92,1.77
118.234,-3.61,4.59,2.24
118.346,-4.82,8.83,1.61
118.384,-4.67,8.9,3.77
118.421,-7.77,10.43,3.96
118.46,-3.37,10.08,10.28
118.499,4.04,9.45,9.77
118.536,-0.98,13.42,2.71
118.574,-6.28,11.06,6.79
118.613,-2.71,8.59,5.92
118.65,-2.12,5.77,0.31
118.688,-3.14,5.14,1.65
118.725,-1.8,5.14,3.18
118.763,-0.86,6.12,2.08
118.8,-2.16,7.96,0.59
118.838,-4.86,7.41,0.47
118.875,-5.57,9.57,3.37
118.913,-5.88,13.1,5.53
119.066,-2.28,6.71,6.79
119.103,-2.75,8.79,7.61
119.141,-4,6.94,4.43
119.178,-5.06,6.59,4.31
119.216,-2.51,5.49,3.45
119.253,-1.92,4.31,1.14
119.291,-2.79,4.79,4.04
119.328,-4.9,5.84,4.71
119.366,-8.43,6.9,3.37
119.403,-5.61,5.92,-2.94
119.442,-4.79,9.69,5.33
119.479,-5.96,9.96,4.75
119.517,-5.84,8.08,8.2
119.706,-1.49,6,1.69
119.744,-4.35,5.06,1.37
119.782,-4.51,5.02,1.96
119.819,-1.69,5.96,3.61
119.857,-2.55,6.24,-0.31
119.895,-5.1,6.94,-0.75
119.934,-6.2,9.38,3.22
119.971,-5.1,13.61,7.45
120.01,-6.39,12.28,2.16
120.048,-5.3,14.12,6.35
120.087,-0.98,9.02,13.42
120.125,-3.1,5.22,2.12
120.163,-2.79,5.41,2.51
120.2,-3.26,6.94,6.2
120.238,-3.3,8.2,6.2
120.275,-1.88,6.79,4.9
120.313,-2.43,3.69,0.24
120.35,-4.43,4.79,2.47
120.388,-16.79,11.65,-7.3
120.428,-5.84,8.04,3.26
120.466,-2.55,8.24,4.28
120.503,-5.02,10.04,3.1
120.542,-8.2,9.49,1.96
120.579,-6.51,10.16,7.3
120.618,-0.98,8.75,7.1
120.656,-1.69,10.75,5.22
120.694,-5.3,11.3,6.75
120.733,-3.57,10.2,1.1
120.771,-1.73,6,2.08
120.921,-2.39,6.9,0.35
120.959,-5.22,6.94,0.63
120.996,-5.65,7.57,2.47
121.034,-3.92,13.34,7.92
121.072,-5.84,13.18,4.71
121.111,-4.75,12.63,8.32
121.149,-1.26,10.12,12.83
121.189,-2.51,6.08,1.8
121.226,-2.47,4.94,2.63
121.264,-5.02,6.32,4.86
121.301,-3.73,8.24,6.32
121.339,-1.37,6.94,5.49
121.376,-2.43,3.41,1.26
121.414,-3.69,4.82,3.06
121.604,-8.9,9.49,3.53
121.642,-8.83,7.69,3.45
121.679,-0.9,7.57,8.9
121.717,1.29,5.57,3.88
121.753,-5.33,13.73,8.2
121.792,-8.32,9.73,7.22
121.829,-3.73,6.83,3.18
121.867,-3.69,5.84,0.43
121.904,-4,5.06,1.61
121.942,-1.92,5.41,2.63
121.979,-1.84,5.73,0.67
122.017,-4.94,7.45,-0.94
122.056,-5.41,7.1,0.67
122.209,-3.22,12.28,15.69
122.248,-1.8,8.59,-1.53
122.287,-3.92,3.69,-0.55
122.325,-6.12,5.88,5.45
122.363,-2.47,9.65,8.79
122.4,-0.71,6.71,3.73
122.438,-2.47,2.86,1.14
122.475,-4.31,3.65,1.96
122.513,0.35,10.75,0
122.55,-3.57,9.06,2.63
122.588,-1.33,8.59,3.33
