NAME:,test2,,
EXPERIMENT TIME:,22-05-22 16:54,,
Activity,Walking,,
COUNT OF ACTUAL STEPS,85,,
,,,
Time [sec],ACC X,ACC Y,ACC Z
0,-0.47,8.12,3.37
0.042,0,9.96,3.45
0.086,0.31,10.79,3.02
0.129,0.47,9.81,5.22
0.173,2.24,11.53,4.63
0.216,2.67,17.22,2.67
0.26,-0.35,9.73,2.71
0.306,-2.31,11.06,-3.61
0.35,0.71,10.59,0.63
0.392,0.16,8,0.16
0.437,-0.27,7.53,-0.67
0.481,-1.06,8.32,0.75
0.525,-1.06,8.79,0.86
0.568,-0.86,8.16,1.37
0.612,-1.88,7.41,1.92
0.656,-1.37,7.85,2.59
0.701,-1.65,11.18,2.79
0.746,-3.37,12.55,2.9
0.79,-2.43,10.55,5.45
0.835,-6.28,13.93,3.88
0.881,-4.67,15.46,-1.84
0.925,0.59,6.94,-1.14
0.969,-0.51,13.85,0.55
1.014,-1.69,8.59,-0.47
1.058,-2.71,7.45,0.31
1.101,0.35,7.92,0.31
1.143,0.16,7.22,0.78
1.187,-0.98,6.67,1.06
1.231,-0.27,6.51,2.16
1.274,0.27,8.59,3.57
1.318,-0.78,11.57,3.22
1.363,-0.78,12.4,6.9
1.407,1.84,14.51,3.61
1.451,2.94,16,0
1.496,-2.08,5.18,-3.49
1.539,0.75,16.71,3.1
1.583,-0.82,7.96,0.16
1.627,2.47,6.08,-1.49
1.669,0.08,8.9,0.67
1.713,-1.37,8,1.41
1.757,-2.08,6.9,1.8
1.801,-2.59,8.08,1.69
1.844,-1.37,9.1,2.9
1.889,-2.9,11.85,2.79
1.934,-3.84,12.4,4.86
1.979,-3.22,12.24,4.98
2.025,-5.26,16.83,-0.27
2.068,3.69,9.38,-4.98
2.113,-4.12,11.38,1.37
2.157,1.29,11.3,0.51
2.202,-1.57,7.41,-1.69
2.246,-1.33,6.24,1.29
2.288,0.08,7.18,0.2
2.332,-0.78,7.06,1.14
2.375,0.04,5.57,2.55
2.418,-0.16,7.88,3.61
2.462,0.27,10.9,3.49
2.506,2.71,14.36,8.47
2.551,-0.16,12.55,5.1
2.596,0.55,14.36,-0.78
2.64,-0.71,8,-5.49
2.685,-1.77,14.4,1.41
2.729,0.55,7.22,-0.47
2.773,2.39,5.69,-1.02
2.816,-1.77,8.47,0.39
2.86,-1.77,7.92,1.57
2.904,-3.06,6.63,1.45483524
3.351,-2.47,6.67,-0.67
3.394,2.04,7.49,-0.67
3.437,0.86,8.79,0.31
3.48,0.04,7.92,1.33
3.524,-1.33,7.96,2.2
3.566,0.94,8.12,3.02
3.61,-0.27,9.06,2.98
3.654,0.9,11.61,5.33
3.698,-0.12,8.75,5.18
3.741,3.1,20.01,0.71
3.786,-2.98,6.43,-1.69
3.831,-0.67,11.18,1.06
3.877,-1.22,10.83,-0.43
3.921,1.18,6.9,-0.94
3.964,0.04,7.88,-0.63
4.009,-1.92,9.02,-0.16
4.053,-2.55,8.79,1.26
4.097,-0.98,8.79,1.69
4.14,-0.98,8.59,1.73
4.184,-2.31,9.02,2.24
4.229,-2.08,10.94,2.82
4.274,-2.12,11.77,3.41
4.317,-2.31,9.96,4.63
4.362,-4.98,12.51,2.82
4.408,-5.37,15.18,-1.37
4.452,1.53,9.18,-4.16
4.496,0.39,12.87,1.29
4.54,-1.45,9.06,-1.65
4.585,-2.12,7.69,-0.31
4.629,0.63,7.61,-0.35
4.672,0.2,8.24,0.2
4.716,-0.31,10.04,1.77
4.76,-1.14,8.55,2.04
4.803,0.2,7.57,1.96
4.846,0.55,8.39,2.79
4.89,-0.16,10.36,3.02
4.935,-0.31,11.22,5.18
4.98,-0.31,10,5.3
5.024,2.9,17.26,2.39
5.067,0.2,9.14,-2.63
5.112,-2.08,7.77,-2.71
5.156,0.08,14.67,1.18
5.2,1.84,6.59,-0.78
5.243,0.55,8.04,-0.86
5.287,-0.9,9.61,0.47
5.331,-1.53,8.83,1.57
5.375,-1.84,8.28,1.49
5.418,-0.98,9.06,1.77
5.462,-1.53,8.51,2.24
5.506,-2.24,9.34,2
5.551,-2.31,11.45,2.98
5.596,-2.59,10.4,3.77
5.64,-4.31,11.53,4.08
5.685,-4.9,15.18,0.63
5.729,2.47,9.96,-2.35
5.774,-0.55,10.67,0.04
5.818,-0.35,12.16,0.16
5.863,-0.94,9.18,-0.75
5.908,-0.47,8.43,-0.51
5.951,0.39,7.96,0.16
5.994,-0.16,7.57,0.35
6.038,-0.63,8.67,1.26
6.082,-0.86,7.88,2.59
6.125,0,8.28,3.22
6.167,1.1,8.87,2.16
6.212,-0.78,11.65,3.88
6.256,-0.86,9.34,6
6.299,0.9,9.57,5.22
6.342,3.73,16.32,2.94
6.388,-0.43,10.12,-0.71
6.433,-0.67,5.14,-3.73
6.477,0.59,14.04,0.75
6.521,1.69,6.79,-0.27
6.564,1.96,8.55,-0.31
6.608,-1.73,9.57,1.29
6.652,-0.55,8.2,1.49
6.696,-1.02,8.39,1.53
6.739,-1.18,9.45,2.12
6.783,-1.18,8,2.16
6.827,-2.16,9.1,1.92
6.872,-2.31,10.2,2.35
6.916,-3.33,11.34,3.37
6.961,-3.88,10.59,4.82
7.006,-5.06,15.1,0.78
7.052,-0.24,13.38,-0.35
7.097,-1.02,9.45,-2.16
7.14,2.47,13.73,0.12
7.185,-2.16,8.24,-0.67
7.23,-0.31,9.18,-0.24
7.274,0.24,7.85,-0.2
7.316,0.12,8.16,0.2
7.36,-0.75,9.53,0.98
7.404,-0.94,8.43,1.77
7.447,0.31,7.73,1.96
7.489,0.63,8.36,2.63
7.534,-0.94,10.32,3.14
7.579,-1.14,11.38,5.3
7.623,-1.53,7.85,5.73
7.666,2.39,14.44,3.45
7.711,4.43,18.63,-3.06
7.756,-2.75,4.43,-2
7.801,-0.2,15.3,0.24
7.844,0.24,8.94,-0.2
7.888,2.67,6.75,-1.29
7.932,-1.77,9.26,0.27
7.976,-2.51,9.26,1.02
8.019,-1.77,8.75,1.49
8.063,-1.1,8.98,1.33
8.107,-2.12,8.08,1.77
8.151,-1.96,8.87,2.31
8.196,-2.04,10.75,2.55
8.24,-2.59,10.71,3.41
8.284,-2.35,9.61,4.82
8.329,-5.84,12.55,3.49
8.374,-2.75,14.51,0.39
8.418,-0.24,9.53,-2.67489038
8.855,0.16,9.77,2.82
8.899,0.08,12,4.67
8.941,0.2,9.45,5.26
8.985,2.63,18.91,1.14
9.03,-1.26,10.24,0.27
9.076,-2.28,11.81,-3.22
9.121,-0.51,12.4,0.24
9.164,2.24,7.45,-0.39
9.209,-0.24,7.96,-0.27
9.253,-1.06,9.69,0.43
9.297,-1.41,9.02,1.29
9.34,-1.96,8.79,1.73
9.384,-1.14,9.02,1.49
9.428,-1.96,8.2,1.77
9.472,-1.77,9.18,1.02
9.516,-2.43,10.71,3.18
9.561,-2.2,10.55,3.41490181
9.65,-5.81,12.67,1.65
9.694,-1.8,15.02,0.39
9.739,-0.98,9.41,-2.39
9.783,1.22,14.24,0.2
9.828,-1.88,9.06,-0.82
9.873,-0.63,9.85,-0.43
9.915,0.24,8.2,0.16
9.959,0.63,8.04,-0.04
10.003,-1.22,8.47,0.67
10.047,-0.31,8.12,2
10.09,-0.35,7.77,1.84
10.133,0.08,8.24,2.86
10.177,0.55,10.28,2.59
10.221,-0.67,9.81,2.94
10.264,-1.33,8.63,5.26
10.308,-0.27,9.26,6.28
10.352,4,15.57,2.82
10.396,2.12,16,0.55
10.44,-0.04,4.51,-2.2
10.485,-3.88,13.89,0.39
10.529,1.26,9.38,-0.31
10.573,3.61,8.83,-0.2
10.616,-2.55,8.43,0.55
10.66,-0.63,8.32,0.67
10.704,-1.26,9.49,1.14
10.748,-1.22,9.77,2.12
10.791,-1.49,8.79,1.96
10.835,-1.88,7.88,1.65
10.879,-2.67,9.14,1.41
10.924,-1.65,11.1,2.31
10.968,-2.28,11.18,3.1
11.012,-3.02,9.57,3.69
11.057,-5.3,12.98,2.08
11.102,-2.51,14.91,0.04
11.147,-0.94,8.55,-2.51
11.191,0.59,12.4,-0.2
11.236,-1.92,9.41,-0.51
11.281,-1.14,9.61,-0.78
11.324,0.59,8.32,0
11.367,-0.04,7.92,0.04
11.411,-0.94,8.47,0.59
11.455,-0.27,8.71,1.37
11.499,-0.16,7.92,2.04
11.542,-0.12,8.39,3.14
11.585,0.59,8.55,2.59
11.63,-0.94,11.89,4.55
11.674,-1.1,8.83,5.49
11.717,1.33,11.77,3.73
11.761,2.31,19.26,0.35
11.806,-1.37,5.49,-2.51
11.851,-2.86,9.65,-3.18
11.896,0.86,10.4,-0.51
11.939,2.12,7.81,-0.2
11.983,-1.02,9.41,0.31
12.027,-0.94,9.14,0.59
12.071,-1.57,9.89,0.98
12.114,-0.55,9.53,2.04
12.158,-1.18,9.02,2.12
12.202,-1.02,8.32,1.73
12.246,-2.04,8.39,1.41
12.29,-1.69,10.32,2.16
12.335,-2.04,10.16,2.08
12.38,-1.96,10.16,4.16
12.425,-4.31,10.43,2.67
12.469,-4.79,14.98,0.35
12.514,0.55,14.16,-0.16
12.559,-1.8,8.2,-2.31
12.603,0.47,12.59,1.1
12.648,-1.69,9.1,-0.27
12.693,-1.02,10.24,-0.27
12.736,0.27,7.69,0.12
12.779,0.04,7.85,0.24
12.823,-1.57,8.75,1.18
12.866,-0.2,8.16,1.84
12.909,0,8.08,2.16
12.953,-0.2,7.92,2.39
12.997,-1.02,9.92,2.82
13.041,-1.88,11.3,4.12
13.085,-1.14,9.61,4.63
13.128,0.47,9.02,4.59
13.172,3.26,16.16,2.51
13.216,0.63,16.24,-1.33
13.261,-0.55,5.37,-3.18
13.306,-3.61,15.77,0.75
13.35,0.71,8.08,-1.1
13.393,2.51,8.2,-1.22
13.438,-1.88,10.43,0.51
13.482,-1.18,9.02,1.53
13.526,-1.77,8.83,1.33
13.569,-0.78,8.75,1.73
13.613,-1.1,8.32,1.92
13.657,-1.96,8.43,2.43
13.701,-2.28,9.57,1.96
13.746,-2.55,10.83,2.51
13.789,-2.9,9.49,3.92
13.833,-4.2,9.92,4
13.878,-5.26,14.2,0.12494499
14.362,0.2,8.9,2.59
14.407,-0.71,10.16,2.9
14.452,-1.33,10.04,3.06
14.495,-2.08,9.02,5.3
14.539,1.65,11.89,3.37
14.584,3.73,19.77,-0.39
14.63,-0.43,10.4,-0.51
14.675,-2.2,8.04,-2.43
14.72,-0.31,15.97,-0.35
14.764,3.45,6.98,-0.82
14.809,-0.63,8.12,-0.9
14.853,-1.37,9.73,0.9
14.897,-1.61,8.71,0.63
14.94,-1.73,9.26,1.37
14.984,-1.1,9.26,1.65
15.028,-2.2,8.43,1.84
15.072,-2.24,8.51,1.57
15.116,-2.2,10.2,1.69
15.161,-2.12,10.67,2.79
15.205,-2.35,9.18,3.96
15.25,-5.49,12.12,1.65
15.294,-4.31,15.93,0.63
15.338,0.9,9.77,-3.18
15.383,0.59,12.28,-0.35
15.428,-0.24,11.92,0.16
15.473,-1.26,9.77,-0.2
15.516,-0.04,8.47,0.12
15.56,0.9,7.85,-0.04
15.604,-0.82,8.51,1.1
15.648,-0.94,8.9,1.18
15.691,-0.78,7.77,1.8
15.735,-0.31,8.16,2.71
15.778,0.39,9.22,2.55
15.823,-0.67,10.71,2.79
15.866,-0.55,9.26,4.9
15.91,0.82,10.08,4.71
15.955,3.65,19.97,-0.67
16,-1.65,7.73,-1.33
16.044,-1.45,9.3,-4.71
16.09,-0.51,12.08,-0.71
16.134,3.02,7.88,-0.43
16.178,0.35,8.12,-0.2
16.222,-2,9.22,0.16
16.265,-1.14,9.02,0.43
16.309,-2.08,9.77,1.29
16.353,-0.63,9.53,1.49
16.397,-2,8.87,1.69
16.44,-1.1,8.87,1.45
16.484,-1.69,8.9,1.53
16.528,-1.65,9.85,1.84
16.572,-1.57,9.45,2.43
16.615,-2.28,9.34,3.37
16.66,-3.53,10.16,4.08
16.705,-5.18,13.18,3.69
16.75,-2.31,14.63,3.69
16.794,-0.59,8.94,-2.94
16.839,0.59,11.3,-0.31
16.885,-2.79,11.65,-0.16
16.93,-0.98,10.28,0.94
16.975,-0.51,8.43,-0.04
17.018,-0.16,7.26,0.78
17.062,-0.51,8.24,1.33
17.106,-0.16,8.08,1.61
17.15,-0.43,7.3,2.82
17.192,0.59,7.85,4.35
17.235,0.39,9.06,3.26
17.28,-0.47,12.2,5.1
17.324,-0.98,8,6.55
17.367,2.71,19.1,0.86
17.411,0.24,12.2,0.43
17.455,0.86,7.18,-4.59
17.5,-2.43,13.34,0.55
17.543,1.14,8.43,-1.53
17.586,3.57,8.28,0.12
17.63,-2.39,8.04,0.51
17.674,-0.31,8.9,0.71
17.717,-1.41,9.61,1.22
17.761,-0.71,9.77,2
17.805,-1.1,8.9,1.69
17.849,-1.14,8.12,1.26
17.892,-2.67,8.63,1.37
17.937,-2.04,10.94,2.12
17.982,-1.92,10.83,2.82
18.026,-3.45,9.1,3.77
18.07,-6.12,13.93,1.18
18.115,-4.04,16.79,0
18.16,-1.22,8.59,-1.77
18.205,1.18,12.83,-0.24
18.25,-1.92,8.9,-0.35
18.294,-0.78,9.45,-0.75
18.339,-0.51,7.65,-0.04
18.383,0.59,7.45,-0.04
18.427,-1.22,9.22,1.45
18.47,-0.2,8.55,1.65
18.514,-0.59,7.88,2.59
18.558,-0.67,9.02,3.41
18.602,-0.2,9.18,2.35
18.645,0.31,11.22,5.49
18.689,-1.41,7.92,5.88
18.733,3.92,14.47,1.61
18.778,-0.51,14,0.12
18.822,0.27,4.94,-3.49
18.866,-3.77,15.14,0.35
18.91,0.67,7.57,-1.45
18.954,2.47,8.12,-0.35
18.998,-2.39,8.55,0.24
19.041,-0.55,9.69,1.37
19.085,-0.98,8.67,1.02
19.129,-1.61,8.55,2.04
19.173,-1.57,8.55,1.96
19.216,-1.69,8.67,2.31
19.26,-1.88,8.79,1.53
19.305,-2.67,10.9,2.59
19.35,-2.79,10.43,4.55
19.394,-5.69,12.24,2.00500015
19.837,-1.02,7.69,2.2
19.881,-0.35,8.28,3.41
19.924,1.14,9.02,2.2
19.968,-1.73,11.41,3.77
20.012,-0.86,7.85,6.08
20.055,0.9,9.53,4.86
20.099,3.3,17.46,0.59
20.143,0,13.85,-0.63
20.188,-2.86,7.45,-2.43
20.233,-0.47,15.65,0.31
20.276,3.53,7.34,0.16
20.319,0.04,7.61,-0.71
20.363,-1.73,8.9,1.06
20.407,-0.82,9.38,0.63
20.451,-2.28,9.3,2.24
20.494,-0.43,9.57,1.84
20.538,-1.73,8.75,1.53
20.582,-2.16,8.36,1.41
20.626,-1.57,9.22,0.86
20.67,-1.73,10.67,2.31
20.715,-1.49,10.2,3.22
20.759,-3.26,8.9,3.49
20.804,-4.82,13.26,1.53
20.85,-3.92,16,-0.82
20.892,2.82,8.83,0
20.937,0.71,13.69,-0.67
20.982,-1.18,9.53,-0.35
21.027,-2.82,9.02,-0.51
21.069,0.35,8.2,0.04
21.112,2.12,8.43,0.08
21.156,-0.24,8.24,0.12
21.2,-1.41,9.49,1.53
21.243,-0.08,8.32,1.88
21.286,0.27,7.96,2.47
21.329,0.12,9.02,2.47
21.374,-2.39,10.2,3.73
21.417,-1.88,9.22,4.04
21.461,-0.67,7.96,5.41
21.505,2.47,13.61,3.02
21.55,2.94,20.01,-2.28
21.594,-1.92,3.61,-2
21.639,-2.2,15.97,0.63
21.685,-0.2,10.43,-0.82
21.729,4.82,7.61,-1.14
21.773,-2.9,8.24,0.55
21.816,-0.71,9.18,0.78
21.86,-1.29,9.49,1.61
21.904,-0.78,9.49,2.28
21.948,-1.33,8.63,1.73
21.991,-1.69,7.77,1.8
22.035,-1.65,8.87,1.53
22.08,-2.31,10.79,2.55
22.125,-2.47,10.28,3.1
22.168,-2.79,8.67,3.65
22.214,-5.18,15.06,-0.71
22.26,-1.65,15.97,-1.49
22.305,-0.71,10.47,0.63
22.349,1.96,13.42,0
22.393,-2.24,7.85,-1.26
22.437,0.71,9.02,-0.39
22.481,0.63,8.59,-0.86
22.524,1.22,8,0.47
22.567,-1.61,8.67,0.43
22.611,-0.82,8.98,1.53
22.655,-0.31,8.16,1.69
22.698,0.24,8.55,2.94
22.741,-0.12,9.14,2.24
22.786,-1.29,11.26,3.18
22.83,-1.88,9.1,6.32
22.873,1.29,9.45,4.35
22.916,2.9,19.3,0.24
22.961,1.18,12.4,-2.24
23.006,-3.41,8.98,-1.37
23.052,-0.82,15.53,-0.12
23.095,3.14,6.9,-0.75
23.139,1.26,7.92,-0.86
23.183,-1.96,9.41,0.86
23.227,-1.26,9.18,1.41
23.27,-1.8,9.18,2.12
23.314,-0.27,8.83,1.61
23.358,-1.84,8.67,1.69
23.402,-2.04,8.98,1.65
23.445,-1.45,9.61,1.92
23.489,-1.61,9.81,2.59
23.533,-2.28,9.92,3.8
23.577,-3.02,9.18,3.49
23.623,-4.12,15.22,-0.59
23.668,-0.75,15.49,-0.08
23.712,-1.41,9.81,0.12
23.756,1.88,14.87,0.39
23.801,-1.57,8.36,-1.37
23.845,-2.04,9.06,-0.9
23.888,0.59,6.86,0
23.931,1.49,9.18,0.43
23.975,-0.71,9.45,1.61
24.018,-1.84,8.94,1.92
24.062,-0.16,7.3,2.12
24.105,0.04,7.88,2.59
24.15,-0.63,10.04,2.79
24.194,-1.53,10.2,3.3
24.238,-0.82,9.34,5.02
24.281,0.63,8.51,5.41
24.325,2.08,13.42,3.41
24.369,1.41,20.01,-0.08
24.414,-1.22,4.82,-4.35
24.459,-2.24,11.69,1.02
24.504,0.51,10.47,-0.16
24.548,3.88,6.94,-1.49
24.591,-3.06,8.94,0.39
24.635,-0.63,9.22,1.14
24.679,-1.84,9.1,1.8
24.723,-1.22,9.18,2.31
24.766,-1.53,8.67,2.16
24.81,-1.73,8.32,1.92
24.854,-1.69,8.83,1.65
24.898,-2.12,9.96,2.20505518
25.341,1.49,8.47,0
25.384,0.04,9.26,0.51
25.428,-1.92,9.02,1.84
25.472,-0.75,8.39,1.69
25.514,0.08,7.41,2.55
25.557,0.59,9.14,2.24
25.602,-1.22,10.51,3.33
25.647,-0.55,10,3.92
25.69,-1.53,8,5.3
25.734,1.84,12.71,3.26
25.779,2.39,20.01,-0.9
25.824,-2.28,2.67,-3.14
25.868,-2.51,13.38,1.61
25.912,0.35,9.38,-0.27
25.956,4.24,6.24,-2.12
26,-2.35,9.1,1.29
26.043,-1.06,8.98,1.1
26.087,-1.73,9.22,1.41
26.131,-0.94,9.3,2.43
26.175,-1.26,8.47,2.04
26.218,-2,8.28,1.96
26.262,-1.77,9.3,1.84
26.306,-1.49,9.61,2.35
26.35,-2.55,9.34,3.3
26.393,-2.59,8.9,4.67
26.438,-5.18,12,1.65
26.483,-4.31,15.1,1.41
26.528,2.28,11.34,-3.61
26.572,1.45,13.77,1.61
26.616,-1.41,9.26,-1.37
26.661,-1.8,10.51,0.08
26.705,-0.04,8.24,0.71
26.748,1.26,7.85,0.24
26.792,-0.12,8.12,-0.04
26.836,-2.08,8.75,1.84
26.88,-0.67,9.49,1.88
26.923,0.63,9.1,2.08
26.965,0.27,7.88,2.67
27.009,-0.24,9.41,2.43
27.054,-1.26,10.83,3.26
27.098,-1.53,8.51,4.59
27.14,0.51,9.77,4.31
27.184,2.2,18.16,1.61
27.229,3.92,14.95,-1.06
27.274,-3.57,4.47,-2.35
27.319,-0.04,15.69,-0.86
27.362,1.33,8,0.08
27.406,1.49,8.12,-1.45
27.45,-1.26,9.89,1.18
27.493,-1.57,8.51,0.94
27.537,-1.14,9.96,0.94
27.58,0,9.26,2.16
27.624,-1.96,9.3,1.61
27.667,-2.12,8.43,1.61
27.711,-1.69,9.49,1.53
27.755,-1.29,9.61,1.57
27.799,-1.65,9.45,2.67
27.842,-2.04,9.81,3.61
27.886,-3.06,8.94,3.73
27.931,-5.53,14,1.14
27.977,-0.67,16.91,-0.27
28.022,-2.43,8.28,-0.63
28.065,2.43,14.4,0.98
28.11,-2.47,8.98,-0.75
28.154,-2.47,9.53,0.08
28.199,-0.04,8.28,-0.27
28.241,2.43,7.88,0.78
28.285,-0.94,8.12,0.63
28.329,-1.69,8.39,1.14
28.373,-0.63,7.22,1.73
28.416,-0.16,7.92,2.67
28.46,-0.24,9.53,2.35
28.505,-0.35,11.89,3.69
28.549,-1.18,9.49,5.41
28.591,0.55,9.34,4.55
28.635,1.84,18.55,0.98
28.679,1.26,7.92,-3.06
28.724,-4,9.57,-2.59
28.769,-0.78,16.63,-0.12
28.813,2.75,6,-0.35
28.857,1.45,8.43,-1.41
28.901,-1.73,9.22,1.02
28.944,-1.26,9.1,0.78
28.988,-2.28,9.18,1.18
29.032,-0.08,9.18,1.26
29.076,-1.61,8.9,1.26
29.119,-1.77,8.47,1.41
29.163,-1.49,9.38,1.49
29.208,-2.28,10.43,2.08
29.252,-1.92,9.92,3.57
29.295,-4.12,9.02,3.37
29.341,-5.3,14.75,-0.27
29.386,-1.06,15.61,0.2
29.43,0.16,9.3,-0.82
29.474,1.96,14.04,1.1
29.518,-2.51,9.53,-1.45
29.564,-0.98,10.12,-0.27
29.608,1.1,8.04,-0.2
29.651,0.51,7.77,0.08
29.694,-1.65,8.67,1.49
29.738,-0.75,7.85,1.57
29.782,-0.9,7.18,2.12
29.826,-0.31,8.59,3.22
29.869,-0.39,9.81,2.79
29.914,-0.55,12.94,3.69
29.958,-1.1,8.32,5.77
30.002,2.79,16.36,1.22
30.045,2.28,14.79,1.45
30.089,0.39,9.38,-4.24
30.134,-5.45,13.38,0.04
30.178,1.57,9.92,-1.69
30.22,2.31,8.67,0.24
30.264,-1.88,7.53,0.12
30.308,-0.16,9.18,0.27
30.352,-1.33,9.34,0.78510972
30.527,-1.96,9.22,1.29511146
31.144,0.35,8.67,0.20511764
31.362,-0.27,11.45,3.26
31.406,-1.88,8.47,5.73
31.45,1.49,11.22,3.1
31.494,2.12,20.01,-0.43
31.539,-0.86,4.98,-3.61
31.585,-3.3,11.61,-2.31
31.63,-0.24,8.51,-1.65
31.674,3.61,6.67,-0.71
31.718,-1.22,9.1,-0.2
31.763,-1.26,10,0.9
31.807,-1.37,9.18,1.37
31.851,-1.33,9.3,1.69
31.894,-1.1,8.67,1.29
31.938,-2,8.75,1.45
31.982,-2.35,9.02,1.53
32.026,-1.92,9.96,1.8
32.069,-2.2,9.34,3.06
32.113,-1.57,9.53,3.96
32.158,-5.1,11.06,1.8
32.204,-5.26,17.42,-2.86
32.249,3.96,11.77,-5.92
32.293,-2.39,11.06,1.14
32.337,2.31,12.55,0.16
32.383,-2.12,10.2,-0.75
32.428,-1.33,9.22,-0.08
32.47,1.57,8.83,0.35
32.515,-0.47,8.12,-0.2
32.559,-0.78,7.34,0.86
32.603,-0.67,8.36,1.61
32.645,0.2,8.32,2.16
32.688,0.51,9.38,2.79
32.733,-0.86,10.55,2.98
32.777,-1.1,9.69,4.2
32.82,-1.22,8.71,5.37
32.863,1.61,9.22,4.98
32.907,1.53,18.83,0.67
32.952,0.82,10.36,-1.53
32.996,-3.1,5.41,-2
33.041,0.08,14.04,-0.08
33.084,1.92,8.98,0.67
33.128,1.69,7.37,-0.67
33.171,-1.73,9.26,1.06
33.215,-0.59,8.87,1.77
33.259,-1.61,9.3,2.08
33.303,-0.63,9.06,1.96
33.346,-1.61,8.59,2.28
33.39,-1.84,8.16,1.73
33.434,-1.53,9.85,2.51
33.479,-1.73,10.16,2.39
33.524,-1.65,10.08,3.88
33.567,-2.98,8.75,3.57
33.612,-5.26,12.79,2.20514233
33.744,1.14,13.93,0.82
33.789,-2.86,8.55,-0.98
33.834,-2.86,9.26,-0.24
33.878,0.59,6.86,-0.04
33.921,0.47,7.61,-0.2
33.964,0.12,9.92,1.57
34.008,-1.1,9.65,2.04
34.052,-0.2,7.92,2
34.094,0.31,8.79,3.41
34.138,-0.35,9.53,2.51
34.183,-1.1,10.28,3.18
34.227,-2.28,7.88,5.45
34.269,0.35,8.28,6.08
34.313,3.49,13.81,2.98
34.358,0.51,16.87,-0.2
34.402,0.2,4.08,-2.35
34.446,-3.33,11.41,1.61
34.491,0.86,10.04,-0.2
34.535,3.65,7.53,-1.61
34.579,-3.14,9.65,1.65
34.623,-0.27,9.14,1.18
34.666,-1.49,8.83,2.16
34.71,-0.9,9.02,2.12
34.754,-1.26,7.92,1.84
34.798,-1.69,8.08,2
34.841,-2.28,9.41,1.77
34.886,-1.88,10.75,2.59
34.931,-2.55,10.32,3.57
34.976,-3.92,10.51,2.71
35.021,-5.3,14.67,-1.53
35.066,2.82,15.02,-1.88
35.111,-2.94,9.14,-0.43
35.155,2.67,14.63,1.1
35.2,-1.88,9.1,-1.29
35.244,-1.73,9.02,-0.67
35.287,1.69,7.81,0.04
35.33,0.39,8.32,0.47
35.374,-1.49,8.83,1.61
35.417,-0.9,8.28,2.16
35.461,-0.16,7.34,2.24
35.504,0.43,9.1,2.39
35.549,-0.55,10.16,2.59
35.592,-0.08,9.85,3.41
35.636,-1.8,8.51,5.49
35.68,2.31,10.28,4.43
35.724,3.26,18.91,0.78
35.768,-0.82,7.88,-1.8
35.813,-1.33,8.55,-3.96
35.859,-1.37,11.77,-0.04
35.903,2.82,7.92,-0.55
35.946,0.98,8.47,-0.39
35.99,-1.14,8.75,1.1
36.034,-0.98,8.71,0.78
36.078,-1.22,9.77,1.45
36.121,-1.06,9.06,1.8
36.165,-1.22,8.36,1.77
36.209,-1.53,8.59,1.57
36.253,-1.61,9.53,1.96
36.298,-2.55,10.4,2.43
36.342,-2.47,10.36,3.92
36.386,-4.51,9.96,3.61517008
36.828,-2.24,8.98,2.86
36.87,0.63,7.34,1.84
36.913,0.82,8.47,2.28
36.958,-0.9,10.59,3.61
37.002,-0.71,9.96,3.73
37.045,-1.1,8.71,5.61
37.088,0.86,9.02,4.51
37.132,3.88,16.71,1.06
37.177,0.08,10.98,-3.06
37.221,-2.94,5.41,-2.04
37.267,-0.67,14.67,-1.45
37.31,3.18,6.9,0
37.354,2.98,7.18,-1.57
37.398,-2.04,9.34,1.02
37.441,-1.29,8.71,1.41
37.485,-2.08,8.83,1.8
37.529,-1.1,9.34,1.45
37.573,-2,7.92,1.73
37.616,-2.47,8.75,1.8
37.661,-2.08,10.32,2.75
37.705,-1.65,9.92,2.55
37.749,-2.55,9.45,4.35
37.794,-7.26,12.63,-0.86
37.84,-3.1,18.91,-0.16
37.886,-1.57,10.28,-2.75
37.93,2.63,15.38,0.75
37.974,0.16,9.45,-0.94
38.018,-2.08,9.1,-1.14
38.063,-0.2,7.02,-0.78
38.107,0.59,7.92,-0.63
38.151,-0.94,8.55,0.51
38.194,-1.26,8.75,1.96
38.237,0,8.24,1.29
38.281,-0.16,8.67,2.43
38.324,0.43,9.22,1.84
38.368,-0.51,10.79,3.37
38.412,-1.02,9.85,5.1
38.455,1.26,9.85,4.67
38.5,3.41,19.57,-0.51
38.544,-1.73,6.75,-2.63
38.59,-2.31,10.04,-2.94
38.636,-0.63,12.16,-1.06
38.68,3.18,7.14,-1.1
38.724,0.98,8.2,-0.71
38.767,-0.63,9.41,0.59
38.811,-1.33,8.71,0.94
38.855,-2.16,9.49,1.1
38.899,-0.27,9.45,1.45
38.942,-2.39,8.75,1.88
38.986,-1.8,8.47,1.73
39.03,-1.65,9.02,1.8
39.075,-2.86,10.12,2.47
39.118,-2.43,9.92,3.3
39.162,-4.28,9.38,3.02
39.208,-5.65,15.06,-1.06
39.254,-1.06,15.61,-1.02
39.299,-1.18,9.96,-1.92
39.342,2.39,14.67,0.08
39.387,-2.39,8.36,-0.94
39.432,-0.9,9.92,-0.24
39.476,0.51,7.34,-0.63
39.518,0.71,8.63,0.16
39.562,-0.43,9.22,0.43
39.606,-1.8,8.83,2.12
39.649,0.04,8.12,1.53
39.691,0.16,8.63,2.04
39.735,-0.04,9.3,2.71
39.779,-1.18,9.61,2.55
39.823,-1.29,8.98,3.69
39.866,-0.78,9.02,5.53
39.91,2.55,12.83,2.16
39.955,2.47,20.01,-1.96
40,-1.84,5.61,-3.73
40.044,-3.3,13.53,2.08
40.089,0.08,10.79,-1.06
40.133,4.24,6.47,-1.06
40.178,-2.55,8.75,-0.67
40.221,-0.47,9.89,0.75
40.265,-2.47,9.69,0.51
40.309,-1.57,9.61,1.65
40.353,-0.78,9.3,1.1
40.396,-2.24,9.1,1.33
40.44,-2.43,8.83,1.26
40.484,-2,9.14,1.65
40.529,-2.31,10.28,2.28
40.573,-2.51,9.34,3.26
40.616,-4,9.57,3.57
40.662,-5.37,13.53,-1.33
40.707,0.55,16.48,-1.37
40.752,-1.49,9.41,-2.08
40.795,1.41,13.81,0.16
40.84,-1.77,7.77,-0.94
40.885,-2.35,8.43,-0.98
40.929,0.16,7.37,-0.59
40.971,2.16,8.94,1.02
41.015,-0.39,9.41,0.47
41.059,-1.33,9.22,1.33
41.102,0.08,7.92,1.65
41.144,0.2,9.06,2.59
41.188,-0.27,9.61,2.08
41.232,-1.06,9.92,3.14
41.276,-1.29,8.94,4.59
41.318,0.43,8.55,4.63
41.362,3.57,17.26,0.31
41.408,-0.2,18.01,-1.1
41.453,-2.04,5.53,-5.1
41.498,-1.73,17.61,1.02
41.541,0.63,7.61,-0.63
41.585,2.2,8.51,-1.37
41.629,-2.28,8.39,0.71
41.673,-0.55,9.77,0.78
41.716,-2.55,9.1,1.69
41.76,-0.43,9.18,1.37
41.804,-1.84,8.94,1.37
41.848,-2,9.1,1.41
41.891,-1.8,9.53,1.29522512
42.205,2.16,13.96,-0.71
42.25,-2.12,9.02,-1.14
42.295,-0.67,10.47,-0.24522915
42.383,0.94,8.28,-0.08
42.427,-0.47,8.28,0.12
42.47,-1.53,8.98,1.61
42.514,-0.82,8.98,1.41
42.557,0.2,8.08,2
42.6,0.43,9.73,2.43
42.644,-1.33,11.3,3.1
42.688,-0.82,9.34,3.84
42.732,-1.49,8.47,5.33
42.776,2.59,12.51,2.43
42.82,1.45,20.01,-1.33
42.865,-1.57,3.69,-3.8
42.911,-0.98,14.51,-2.55
42.956,-0.12,9.61,-0.59
43,5.06,6.39,-1.29
43.043,-2.43,9.65,0.71
43.087,-0.71,8.55,0.86
43.131,-1.69,9.65,1.29
43.175,-1.77,9.53,1.77
43.218,-1.53,8.75,1.65
43.262,-1.84,8.28,1.8
43.306,-2.2,8.71,1.53
43.351,-1.57,10.04,2.04
43.395,-2.16,10.36,2.94
43.439,-2.55,9.06,4.24
43.484,-4.59,10.59,2.47
43.53,-5.06,16.2,-1.49
43.575,0.98,13.45,-3.88
43.618,-1.33,9.61,1.37
43.664,-0.98,11.85,-1.14
43.709,-2.2,7.3,-0.39
43.754,-2.47,7.96,-0.63
43.796,0.9,8.08,0.51
43.84,0.71,10.94,0.39
43.884,-1.37,9.41,2.16
43.928,-0.75,8.67,1.41
43.97,0.08,7.81,1.57
44.013,0.51,7.92,2.51
44.056,0.04,9.14,2.08
44.1,-1.57,9.81,3.33
44.143,-1.37,8.94,5.02
44.186,0.08,9.18,4.71
44.23,2.31,20.01,0.94
44.275,1.14,10.9,-1.33
44.319,-3.14,5.26,-2.98
44.365,-0.67,15.06,-0.47
44.409,1.18,7.61,-0.55
44.453,0.43,8.63,-0.86
44.496,-1.65,9.22,0.43
44.54,-0.9,8.87,0.71
44.584,-1.26,9.77,1.26
44.628,-1.14,9.26,1.65
44.671,-2.08,8.36,1.65
44.715,-1.69,8.55,1.65
44.759,-1.73,9.3,1.41
44.804,-1.92,10.4,2.12
44.849,-3.02,10.63,3.69
44.892,-4.31,8.98,2.75
44.938,-5.06,14.2,-0.71
44.983,0.04,15.02,-1.53
45.029,-0.63,11.57,-2.12
45.073,1.96,13.1,0.51
45.117,-2.16,8.12,-1.53
45.162,-0.47,8.75,-1.06
45.206,0.86,7.49,-0.12
45.249,0.35,9.38,0.04
45.292,-0.67,8.87,0.63
45.336,-1.53,8.75,1.73
45.379,0.12,7.69,1.41
45.421,0.55,8.9,2.39
45.465,-0.16,9.34,2.16
45.509,-0.55,9.69,3.26
45.553,-1.84,9.1,5.22
45.595,1.57,9.18,3.92
45.64,2.55,20.01,-2.79
45.685,-2.51,9.1,-0.51
45.729,1.22,6.79,-5.69
45.775,-2,13.61,-0.04
45.818,2.31,6.98,-0.86
45.862,0.08,8.16,-0.04
45.907,-2.51,9.18,-0.08
45.951,-0.35,9.81,0.55
45.994,-2.31,9.57,1.69
46.037,0.27,9.61,1.26
46.081,-1.77,8.87,1.45
46.125,-1.61,8.87,1.49
46.168,-2.39,8.47,1.49
46.212,-1.69,9.73,1.49
46.257,-1.96,10.28,2.9
46.301,-2.55,9.06,3.96
46.345,-3.65,10,2.43
46.391,-4.94,16.2,-1.57
46.436,1.92,15.34,-1.84
46.481,-2.79,8.12,-0.2
46.525,1.65,13.61,0.2
46.569,-2.43,8.79,-1.02
46.614,-1.84,9.38,-0.75
46.658,1.33,7.69,-0.04
46.701,1.14,8.12,0.08
46.744,-2.28,8.9,1.57
46.788,-1.29,8.36,1.49
46.832,-0.04,7.57,2.2
46.876,-0.04,8.39,2.67
46.919,-0.82,9.92,2.47
46.964,-0.67,11.14,3.8
47.008,-1.88,8.28,5.92
47.051,0.94,8.16,4.82
47.094,3.02,19.73,0.75
47.138,1.14,7.92,-3.06
47.183,-3.18,8.67,-2.63
47.228,-2,16.55,0.27
47.271,3.3,6.28,-0.24
47.315,2.12,7.77,-0.71
47.359,-1.92,9.38,0.67
47.403,-1.22,9.49,0.43528022
47.842,-0.67,16.36,0.35
47.887,1.69,11.57,-2.71
47.933,-0.08,14.47,-0.35
47.978,-1.18,8.16,-1.18
48.022,-1.73,7.69,-0.75
48.067,-0.35,6.98,-0.71
48.111,1.61,10.12,0.86
48.154,0,9.26,1.1
48.197,-1.61,8.43,1.02
48.241,-0.31,8.75,1.49
48.284,0.67,7.69,2.28
48.327,0.2,9.3,2.31
48.371,-1.37,10.32,2.9
48.415,-1.33,9.1,3.53
48.459,-0.82,7.81,4.51
48.502,0.24,8.24,4.82
48.545,4.2,15.3,2.24
48.591,-2.71,14.32,-1.45
48.635,2.63,2.9,-3.69
48.68,-4.24,20.01,3.22
48.724,2.43,6.39,-0.82
48.767,5.3,7.41,-2.16
48.811,-3.53,9.53,1.37
48.855,-0.51,9.34,0.71
48.899,-2.28,9.22,1.1
48.942,-0.75,9.14,1.41
48.986,-2.2,8.16,1.37
49.03,-1.88,8.59,1.49
49.074,-2.51,9.41,1.69
49.118,-2.35,10.67,2.35
49.162,-3.53,9.02,3.88
49.206,-4,9.26,2
49.252,-5.84,18.44,-1.1
49.296,3.14,12.67,-4.12
49.34,1.73,14.16,0.55
49.385,2,11.49,-0.94
49.431,-1.18,10.32,-0.51
49.476,-0.67,9.06,-0.47
49.518,0.27,7.73,0.12
49.562,-0.12,7.96,0
49.606,-0.9,9.02,1.57
49.65,-1.57,9.18,1.45
49.692,0.86,7.06,1.29
49.735,1.18,9.18,2.55
49.779,-0.63,9.81,2.67
49.824,-0.9,10.16,3.69
49.867,-1.33,9.53,4.86
49.91,0.78,9.34,4.47
49.954,3.96,15.97,0.43
50,-0.63,11.45,-0.47
50.044,-3.02,6.32,-4.75
50.089,0.67,14.04,-1.57
50.133,2.63,7.49,-0.08
50.177,1.8,7.34,-2.04
50.221,-1.29,10.59,0.98
50.265,-2.04,8.28,1.06
50.309,-2.12,9.61,1.22
50.353,-0.16,9.45,0.82
50.396,-2.28,9.34,1.49
50.44,-2.47,9.34,2
50.484,-1.33,8.9,1.49
50.528,-1.29,9.06,1.92
50.571,-1.92,9.18,2.63
50.615,-2.51,9.3,3.88
50.659,-2.55,9.02,4.2
50.704,-6.24,12.63,1.92
50.749,-2.31,17.77,0.27
50.792,2.2,9.49,-4.08
50.836,0.27,11.92,1.88
50.881,-2.31,9.53,-2.04
50.925,-1.73,8.51,0.08
50.969,-1.88,7.02,-1.88
51.012,2.2,9.57,1.18
51.056,0.9,10.98,0.9
51.1,-2.47,8.67,2.16
51.142,0.24,7.53,1.77
51.185,0.27,7.65,2.71
51.228,0.86,8.98,2.04
51.272,-0.82,10.36,3.22
51.316,-0.71,9.49,4.71
51.36,-0.24,8.79,5.3
51.404,3.06,14.2,2.43
51.449,-0.75,15.3,1.37
51.492,1.49,6.16,-3.37
51.537,-4.67,14.08,0.75
51.581,0.31,8.28,-1.45
51.624,3.22,9.65,0.08
51.667,-1.84,7.96,0.82
51.711,-1.37,8.71,0.43
51.755,-0.12,9.92,0.94
51.799,-1.02,9.45,1.45
51.842,-0.35,9.41,1.96
51.886,-1.92,9.22,1.96
51.93,-2.28,8.39,1.84
51.974,-1.65,9.02,1.88
52.017,-2.35,9.18,2.28
52.061,-2.63,9.41,3.53
52.105,-3.14,9.41,4.04
52.15,-5.18,11.53,1.26
52.194,-4.35,17.3,0.2
52.24,-1.49,10.08,-2.67
52.284,1.84,13.53,0.63
52.33,-0.55,10.59,-1.45
52.375,-1.37,10.63,0.2
52.418,-0.86,8.83,0.2
52.462,1.18,7.61,-0.24
52.507,-0.04,8.75,-0.24
52.551,-1.69,8.51,1.69
52.594,-0.86,9.34,1.84
52.637,0.51,8.63,2
52.681,-0.35,8.16,3.57
52.725,-1.14,8.71,3.02
52.769,-0.75,10.24,4.08
52.813,-0.55,9.06,4.31
52.856,1.18,8.67,5.06
52.9,2.51,16.87,1.4153352
53.164,-2.2,9.45,0.78533784
53.339,-2,9.3,1.8
53.383,-2.82,9.65,2
53.427,-1.37,9.41,1.37
53.47,-1.41,9.69,2.2
53.514,-1.8,9.49,3.06
53.558,-1.49,8.87,3.88
53.603,-4.12,10.04,2.51
53.647,-3.8,14.47,1.1
53.693,-0.2,14.36,-0.2
53.738,-1.14,10.2,0.55
53.782,1.49,14.24,0.86
53.827,-1.88,8.43,-0.31
53.871,-2.59,8.39,-0.31
53.915,1.33,6.83,-0.35
53.958,0.98,8.2,0.08
54.003,-0.63,10.08,1.88
54.046,-1.33,8.28,1.92
54.09,-0.31,7.3,1.69
54.134,-0.04,7.85,2.94
54.179,-1.1,10.4,3.02
54.224,-0.27,11.61,4.16
54.267,-2.04,8.2,5.61
54.311,2.47,12.51,3.1
54.356,1.84,20.01,-1.02
54.4,0.47,4.2,-4.24
54.444,-5.33,13.38,5.18
54.489,-0.31,8.98,-1.18
54.533,4.31,8.36,-0.9
54.577,-1.53,8.08,1.22
54.621,-1.1,8.39,-0.16
54.665,-1.33,8.87,1.69
54.709,-1.33,9.69,1.73
54.753,-0.86,9.73,1.69
54.796,-1.61,8.94,1.53
54.84,-1.29,8.71,1.57
54.884,-2.43,9.26,1.8
54.928,-2.43,9.69,2.39
54.971,-2.63,9.92,3.37
55.015,-4,9.81,2.9
55.061,-5.45,15.49,-0.47
55.105,0.35,14.63,1.14
55.15,0.35,11.02,-2.94
55.193,2.08,13.85,0.86
55.237,-2.04,9.92,0.2
55.282,-1.41,10.08,0.27
55.326,0.35,6.71,-1.29
55.368,0.47,8.12,0.43
55.412,-0.12,9.38,0.16
55.456,-1.84,8.98,1.96
55.5,-1.1,8.32,2.51
55.543,-0.16,8.24,2.2
55.587,-0.16,8.71,2
55.631,0.27,10.47,3.45
55.676,-0.43,10.16,3.84
55.719,-0.86,9.3,5.53
55.763,1.8,10.63,4.04
55.808,2.35,20.01,-1.65
55.853,-2.31,4.39,-3.88
55.896,0.43,13.73,1.57
55.942,-2.08,11.14,-0.82
55.986,4.51,5.73,-1.02
56.03,-1.26,8.47,0.2
56.074,-1.96,8.08,0.47
56.117,-1.49,8.32,0.63
56.161,-1.22,9.89,2.47
56.205,-1.37,9.3,1.77
56.249,-2,8.24,1.96
56.292,-1.53,8.83,1.49
56.336,-2.28,9.96,2.35
56.381,-2.24,10.2,3.14
56.425,-3.14,9.3,4.79
56.469,-5.81,10.43,2.39
56.515,-5.1,16.59,-1.88
56.56,2.98,12.08,-4.35
56.605,-2.04,12.2,1.06
56.649,0.71,9.73,-0.94
56.693,-1.96,8.98,-1.29
56.738,-0.43,7.96,-0.9
56.782,1.33,7.57,-0.98
56.826,-0.47,9.06,0.31
56.869,-1.29,8.79,1.69
56.913,-0.27,8.43,1.84
56.956,0.16,7.92,1.88
56.999,0.27,8.08,2.39
57.041,0.08,9.45,3.49
57.085,-1.18,9.77,3.8
57.129,-0.47,9.02,4.28
57.171,0.86,9.73,5.14
57.216,2.67,20.01,-0.55
57.261,-1.61,6.94,-1.45
57.306,-1.14,9.45,-3.26
57.352,-0.63,11.14,-1.14
57.395,2.51,7.49,-0.35
57.439,-0.39,8.39,0.35
57.483,-1.26,9.18,0.98
57.527,-1.29,8.98,0.59
57.57,-2.31,9.77,1.61
57.614,-0.24,9.73,1.41
57.658,-1.53,9.02,1.49
57.702,-2.12,8.79,1.45
57.745,-2.04,9.34,1.53
57.789,-2.04,9.81,1.57
57.833,-2.31,9.41,3.18
57.877,-2.12,9.18,3.22
57.92,-3.18,9.53,4.71
57.965,-6.43,12,0.75
58.011,-1.73,17.65,-4.31
58.056,1.92,12.83,-4.63
58.101,-0.86,13.06,2.35
58.145,0.04,11.65,-0.78
58.19,-3.02,8.75,-0.08
58.235,-2.35,7.37,-0.35
58.279,2.63,7.85,-0.27
58.322,-0.78,7.73,1.73
58.366,-1.02,8.43,1.92
58.409,0.2,8.08,2.08539029
58.715,-1.49,8.36,-0.24539336
58.85,2.28,6.63,-0.75
58.893,2,9.02,-0.43
58.937,-2,8.9,0.31
58.981,-1.33,9.14,1.02
59.025,-0.78,9.89,0.82
59.068,-1.77,9.18,0.9
59.112,-1.61,8.79,1.61
59.156,-1.73,8.94,1.69
59.2,-1.96,8.98,1.22
59.244,-1.92,10,2.51
59.288,-2.43,9.65,2.43
59.332,-2.75,9.26,3.77
59.376,-3.69,9.26,3.77
59.42,-7.22,11.81,2.43
59.465,0.31,18.08,-0.82
59.511,-0.43,10.04,-3.26
59.555,0.67,13.26,1.92
59.6,-1.22,9.3,-0.67
59.644,-1.45,9.61,-0.75
59.689,-1.37,7.41,-0.67
59.733,2.35,7.92,-0.55
59.777,-0.2,9.53,0.63
59.82,-0.63,8.71,1.88
59.863,0.2,8.51,1.57
59.907,-0.39,8.32,1.53
59.951,-0.04,9.1,2.79
59.995,-0.35,10.28,2.47
60.039,-0.31,9.38,2.39
60.082,0.04,8.47,4.59
60.126,-0.16,8.98,5.33
60.168,0.43,7.69,4.75
60.212,3.92,16.08,1.49
60.258,-0.2,13.69,-1.26
60.303,-2.2,2.9,-2.55
60.349,-0.9,17.42,-1.45
60.391,2.9,7.92,0.86
60.435,2.9,7.3,-0.94
60.48,-1.96,10.04,0.9
60.524,-2.86,8.08,0.2
60.567,-1.88,9.53,1.69
60.611,-0.9,9.34,1.49
60.655,-2.16,8.51,1.45
