NAME:,walk_4_1.csv,,
EXPERIMENT TIME:,24/05/2022 15:45,,
ACTIVITY TYPE:,Walking,,
Count of actual steps:,98,,
,,,
Time [sec],ACC X,ACC Y,ACC Z
235.51,6.83,5.81,4.94
235.56,6.9,5.73,4.98
235.61,6.55,6,4.86
235.66,6.47,5.96,4.75
235.72,6.39,6.12,4.79
235.77,6.71,6.08,4.63
235.82,6.75,6.08,4.71
235.87,7.22,6,4.94
235.92,7.14,6.32,4.75
235.97,6.24,6.24,4.9
236.02,6.16,6.59,4.98
236.07,6.04,6.08,5.1
236.12,6.24,6.04,5.26
236.18,6.43,5.65,5.26
236.23,6.51,5.65,5.22
236.28,6.43,5.84,5.3
236.33,6.39,5.81,5.84
236.38,6.39,5.45,6.12
236.43,5.69,5.37,6.28
236.48,5.18,6,6.35
236.53,5.92,6.43,6
236.58,6,6.16,5.81
236.63,5.84,6.16,5.88
236.68,6,5.96,5.77
236.74,6.32,6.71,6.35
236.79,7.41,6.86,6.75
236.84,8.08,6.9,6.98
236.89,8.59,7.06,6.75
236.94,10,6.94,6.35
236.99,9.53,5.45,4.82
237.04,7.26,4.63,4.12
237.09,6.39,4.39,4.08
237.14,5.96,3.92,3.84
237.2,4.94,3.69,3.96
237.25,4.63,3.73,4.43
237.3,4.9,3.18,4.75
237.35,6.47,4.39,6.28
237.4,8.83,5.26,8.04
237.45,10.2,5.69,9.38
237.5,8.36,5.41,9.53
237.55,8.24,6.08,8.67
237.6,9.06,5.69,7.57
237.65,7.88,3.45,5.41
237.71,6.2,1.84,4.43
237.76,5.61,1.41,3.96
237.81,4.98,2.63,4.71
237.86,4.67,2.08,4.94
237.91,5.26,3.73,6.43
237.96,5.61,4.51,6.63
238.01,6.2,6.43,7.88
238.06,6.47,6.67,8.79
238.11,5.88,6.86,12.16
238.16,8.83,7.18,10.4
238.21,9.65,7.53,6.71
238.27,8.55,6.12,3.53
238.32,5.26,4.47,3.1
238.37,4.16,2.51,5.49
238.42,5.96,4.63,6.67
238.47,4.59,6.55,3.26
238.52,4.24,6.71,2.31
238.57,4.75,6.98,3.49
238.62,6.51,7.06,6.55
238.67,7.41,9.41,4.71
238.73,6.83,9.38,5.96
238.78,9.69,8.63,4.98
238.83,9.22,10.79,1.8
238.88,7.57,8,1.37
238.93,7.92,5.02,2.63
238.98,6.67,3.53,6.67
239.03,5.96,3.73,5.81
239.08,4.16,4.12,3.96
239.13,3.73,3.3,4.67
239.18,3.77,3.02,6.16
239.24,5.49,3.8,8.12
239.29,6.9,6.16,8.71
239.34,8.28,7.1,10.47
239.39,11.18,9.22,7.69
239.44,8.94,7.57,4.63
239.49,7.02,5.33,1.92
239.54,5.3,3.88,2.24
239.59,6.9,4,4.35
239.64,6.24,3.26,6.86
239.69,5.45,4.39,4.86
239.74,5.26,5.33,3.45
239.8,6.2,5.33,4.24
239.85,6.24,5.06,8.43
239.9,8.08,6.32,5.92
239.95,8.51,8.16,4.82
240,11.89,6.43,4.71
240.05,9.02,8.79,2.51
240.1,9.73,5.45,1.37
240.15,9.53,4.04,1.96
240.2,8.47,4.24,2.9
240.26,6.16,5.14,3.61
240.31,5.73,4.9,3.8
240.36,4.59,3.49,4.82
240.41,3.41,1.73,7.1
240.46,5.22,2.59,8.16
240.51,7.3,6.94,7.1
240.56,8.59,6.43,9.02
240.61,12.2,9.1,7.81
240.66,8.28,6.94,3.45
240.71,6.67,4.82,2.12
240.76,6,3.1,2.43
240.82,5.14,1.8,3.69
240.87,5.06,2.9,4.31
240.92,6.9,6.16,1.69
240.97,5.69,5.84,2.47
241.02,9.22,6.86,2.82
241.07,8.08,6.86,4.04
241.12,8.28,8.75,1.77
241.17,10.2,8.59,0.9
241.22,11.14,9.38,2.82
241.27,10.71,8.79,1.18
241.33,9.45,5.06,0.43
241.38,8.32,1.77,1.57
241.43,8.32,1.61,3.84
241.48,6.28,3.88,4.43
241.53,4.39,4.2,4.55
241.58,4.51,4.9,4.63
241.63,3.73,4.67,5.41
241.68,5.02,4.9,6.08
241.73,6.83,6.75,6.55
241.79,8.63,6.67,10.28
241.84,12.59,9.92,9.22
241.89,8.32,8.94,4.75
241.94,7.14,5.88,1.96
241.99,4.08,2.43,3.61
242.04,4.75,1.8,4.2
242.09,5.53,4.67,4.75
242.14,5.61,5.61,3.69
242.19,5.49,5.73,3.65
242.24,6.94,5.49,4.86
242.29,7.45,5.53,6.86
242.35,8.12,8.08,5.22
242.4,7.73,9.02,5.14
242.45,11.57,10.59,4.47
242.5,10.79,9.02,2.51
242.55,8.39,3.77,2.98
242.6,6.47,1.37,4.71
242.65,5.88,2.67,4.2
242.7,4.98,3.77,4
242.75,5.33,3.22,4.71
242.8,4.9,2.63,6.63
242.86,4.63,2.98,7.18
242.91,5.53,4.24,7.73
242.96,7.53,6,7.45
243.01,11.18,6.12,10.24
243.06,14.04,9.18,11.38
243.11,8.16,7.85,3.73
243.16,7.02,6.59,3.06
243.21,5.49,4.28,3.26
243.26,3.3,1.77,5.3
243.32,3.88,1.45,5.81
243.37,4.59,4.98,4.47
243.42,3.88,5.1,4.51
243.47,4.71,5.69,5.77
243.52,8.55,6.9,7.26
243.57,9.73,4.94,9.89
243.62,9.85,1.77,11.61
243.67,11.14,6.79,9.53
243.72,10.94,8.16,6
243.77,9.38,6.28,3.3
243.82,8.39,4.12,3.65
243.88,6.2,2,5.02
243.93,5.1,1.14,4.79
243.98,4.51,1.1,4.31
244.03,3.77,0.78,6.47
244.08,4.35,1.69,7.02
244.13,4.75,4.04,8.36
244.18,6.67,6,8.63
244.23,8.87,5.92,10.63
244.28,10.59,9.41,9.22
244.34,10.55,8.47,5.92
244.39,5.41,4,4.94
244.44,5.65,4.04,3.14
244.49,4,3.1,5.37
244.54,4.82,4.55,5.77
244.59,4.16,5.37,3.57
244.64,5.02,6.2,3.57
244.69,6.08,5.49,5.73
244.74,7.65,4.2,9.02
244.79,8.39,6.67,7.92
244.85,9.06,7.02,7.57
244.9,10.43,7.61,6.12
244.95,9.26,7.77,4.43
245,9.89,4.9,2.86
245.05,8.36,2.51,3.53
245.1,6.59,1.73,4.94
245.15,5.81,1.88,5.96
245.2,6.35,2.55,5.73
245.25,5.3,2.67,6
245.3,5.33,3.26,6.71
245.35,5.73,3.26,7.45
245.41,7.53,4.82,8.63
245.46,10.36,4.04,12.43
245.51,12.16,7.3,9.53
245.56,7.45,5.77,5.02
245.61,5.26,4.98,4.47
245.66,4.51,3.3,5.77
245.71,6.75,3.26,6.59
245.76,4.51,3.84,6.08
245.81,4.35,4.39,5.49
245.87,5.14,2.59,6.47
245.92,6.24,3.14,7.73
245.97,8.12,2.9,8.51
246.02,6.59,5.53,8.24
246.07,10.16,3.53,10.4
246.12,11.06,5.84,9.3
246.17,8.55,9.77,5.14
246.22,6.83,3.1,4.24
246.27,9.57,1.57,4.51
246.32,6.51,2.75,4.75
246.37,5.53,2.86,5.06
246.43,5.41,1.49,5.26
246.48,6.35,0.9,6.35
246.53,6,1.02,6.43
246.58,7.77,1.06,7.53
246.63,9.06,2.55,8.55
246.68,10.79,3.14,12.28
246.73,13.18,6.16,10.43
246.78,5.77,4.04,5.69
246.83,4.08,5.41,5.45
246.88,8.12,5.37,7.3
246.94,5.33,0.94,6.24
246.99,4.98,1.22,7.96
247.04,4.98,3.88,6.83
247.09,4.86,2.71,7.06
247.14,5.57,2.82,7.02
247.19,6.79,3.14,7.96
247.24,6.98,5.02,9.38
247.29,12.16,3.84,10.94
247.34,9.85,8.47,7.77
247.4,7.1,7.88,6.63
247.45,6.75,4.71,4.71
247.5,8.51,4.16,6.2
247.55,6.39,2.75,6.12
247.6,5.45,3.02,4.9
247.65,5.81,1.37,5.3
247.7,5.26,0.71,5.69
247.75,6.08,0.55,5.65
247.8,7.65,1.37,6.12
247.85,10.28,2.35,9.14
247.9,12.47,1.02,13.02
247.96,12.55,4.79,7.26
248.01,8.2,2.75,6.32
248.06,5.37,4.59,4.2
248.11,5.45,4.43,5.18
248.16,6.28,1.29,6.32
248.21,4.31,2.28,5.41
248.26,5.37,4.63,5.81
248.31,6.39,3.06,6.98
248.36,6.79,2.28,6.39
248.41,8,3.18,8.59
248.47,6.98,5.26,8.28
248.52,11.61,2.47,8.51
248.57,11.57,6.47,9.26
248.62,8.43,10.16,5.84
248.67,5.84,3.61,4.51
248.72,7.96,3.65,4.24
248.77,6.28,3.02,4.67
248.82,4.98,2.71,4
248.87,6.2,2.16,5.14
248.93,6.75,1.96,6.08
248.98,7.14,1.1,4.79
249.03,9.3,2.59,5.1
249.08,10.55,2,7.88
249.13,11.53,3.61,9.73
249.18,12.51,6.71,5.41
249.23,8.67,4.51,5.77
249.28,7.85,4.9,4.98
249.33,6.39,3.49,3.57
249.38,5.18,2.12,3.18
249.43,5.92,2.31,5.06
249.49,5.33,2.98,4.67
249.54,5.84,2.63,5.73
249.59,7.41,3.14,7.49
249.64,9.45,3.8,8.24
249.69,11.02,2.43,6.86
249.74,12.43,2.35,8.2
249.79,11.92,8.43,7.3
249.84,7.61,6.71,6.32
249.89,7.26,4.51,4.67
249.95,7.49,1.65,3.84
250,5.84,0.86,4.82
250.05,6.12,1.18,5.26
250.1,5.88,1.1,6.04
250.15,5.69,0.71,5.45
250.2,6.98,-0.43,6.04
250.25,9.1,2.31,7.06
250.3,10.71,-0.59,10.16
250.35,11.1,1.22,10.4
250.4,11.1,6.75,6.39
250.46,7.73,6.32,7.92
250.51,4.12,4.08,5.45
250.56,7.1,2.51,4.75
250.61,5.96,2.12,6.04
250.66,4.47,2.9,5.77
250.71,4.71,2.71,5.96
250.76,7.3,1.73,7.96
250.81,7.81,1.69,6.83
250.86,9.89,4.04,8.43
250.91,10.98,3.06,10.87
250.96,11.3,4.31,8.39
251.02,9.34,7.96,6.12
251.07,5.65,4.82,5.69
251.12,6.16,4.04,5.26
251.17,7.92,3.49,5.06
251.22,6.79,1.1,6.08
251.27,6.79,1.84,5.65
251.32,6.08,1.06,6.67
251.37,6.04,1.26,8.12
251.42,8.08,0,7.88
251.48,8.9,-3.18,10.04
251.53,8.28,3.14,9.1
251.58,9.85,6.83,9.61
251.63,9.85,8.79,8.9
251.68,6.51,4.94,6.35
251.73,4.94,4.43,5.37
251.78,5.22,3.92,5.14
251.83,4.67,3.57,5.26
251.88,9.92,-2.75,8.67
251.93,3.18,1.8,5.3
251.99,7.14,2.94,7.92
252.04,8.12,3.26,9.18
252.09,10.16,3.3,10.87
252.14,11.14,2.55,10.24
252.19,11.45,4.47,8.36
252.24,9.34,4.86,6.9
252.29,8.43,3.65,5.96
252.34,7.37,4.39,4.75
252.39,6.51,5.73,3.53
252.44,5.37,5.37,3.61
252.49,3.77,4.39,5.14
252.55,3.92,2.67,6.28
252.6,3.77,1.92,7.26
252.65,5.33,2.47,7.37
252.7,7.26,1.96,8.75
252.75,8.75,0.47,9.38
252.8,10.47,2.28,10.63
252.85,10.67,3.3,12.94
252.9,8.04,4.16,7.73
252.95,5.57,3.84,5.77
253.01,5.3,3.33,5.69
253.06,6.51,3.57,6.59
253.11,5.14,2.31,6.79
253.16,4.51,1.69,6.59
253.21,5.22,1.88,6.75
253.26,5.81,1.41,7.53
253.31,7.37,1.92,8.87
253.36,8.83,2.16,11.14
253.41,12.08,4.94,11.26
253.46,10.08,4.71,9.26
253.51,7.45,3.18,6.55
253.57,7.06,3.22,5.14
253.62,6.32,2.75,4.86
253.67,6,2.43,5.02
253.72,5.18,1.37,6
253.77,4.75,0.75,6.63
253.82,5.45,1.33,7.18
253.87,5.77,1.18,8.08
253.92,6.24,0.94,9.06
253.97,8.36,1.84,9.77
254.02,10.63,3.69,11.34
254.08,10.63,4.79,11.3
254.13,9.06,4.98,9.34
254.18,6.79,4.28,6.04
254.23,4.75,2.86,4.94
254.28,4.24,2.82,5.57
254.33,4.98,2.82,6.75
254.38,4.47,1.1,7.22
254.43,4.82,1.06,7.37
254.48,5.77,1.45,8.43
254.54,6.71,1.8,9.3
254.59,7.73,2.9,9.89
254.64,10.94,4.79,10.32
254.69,10.24,3.49,10.24
254.74,9.65,3.49,9.41
254.79,8.59,2.9,6.71
254.84,7.02,2.79,5.26
254.89,5.65,2.86,4.55
254.94,4.79,2.79,5.26
254.99,4.94,1.69,5.73
255.04,4.16,2.35,6.32
255.1,4.43,3.18,7.02
255.15,5.06,2.98,8.28
255.2,5.57,3.02,9.96
255.25,8.71,3.69,11.3
255.3,10.79,5.18,12.67
255.35,10,6.12,9.65
255.4,7.41,4.51,5.81
255.45,5.22,3.77,5.3
255.5,5.73,3.96,5.92
255.55,5.41,3.69,5.65
255.61,4.28,2.59,5.61
255.66,3.96,1.61,6.35
255.71,4.9,2.12,7.49
255.76,5.84,2.59,8.87
255.81,7.53,3.41,10.24
255.86,9.22,5.06,10.75
255.91,10.87,5.33,10.47
255.96,9.57,4.43,9.22
256.01,7.85,2.35,6.63
256.07,6.79,1.61,5.22
256.12,6.43,1.88,4.39
256.17,5.06,1.8,4.79
256.22,4.71,1.37,5.73
256.27,5.61,1.29,7.45
256.32,6.39,1.22,8.47
256.37,5.84,0.94,8.98
256.42,6.67,1.73,9.3
256.47,9.3,2.63,10.04
256.52,10.36,3.88,11.18
256.58,10.67,4.24,10.75
256.63,7.73,3.84,7.26
256.68,5.33,3.1,4.71
256.73,4.86,2.47,4.43
256.78,5.53,2.86,5.92
256.83,5.33,2.2,6.32
256.88,5.18,1.18,7.06
256.93,5.92,1.41,8.16
256.98,7.02,1.61,9.3
257.03,8.75,2.94,10.2
257.08,10.98,5.3,10.32
257.14,11.41,4.71,9.22
257.19,9.45,2.98,8.2
257.24,7.41,0.94,5.65
257.29,7.02,1.37,4.59
257.34,7.18,1.57,5.14
257.39,5.1,1.1,5.26
257.44,4.51,1.26,6
257.49,5.02,1.88,6.47
257.54,5.49,2.35,7.69
257.6,5.92,2.47,8.9
257.65,7.34,2.35,10.24
257.7,10,2.43,11.73
257.75,11.49,3.45,12.28
257.8,10,3.96,9.34
257.85,7.02,3.77,5.69
257.9,5.26,2.98,4.63
257.95,5.06,3.02,5.1
258,5.14,2.55,5.33
258.05,4.39,1.65,5.77
258.11,4.75,1.1,7.26
258.16,5.77,1.57,9.02
258.21,7.41,2.12,9.96
258.26,8.98,3.65,10.55
258.31,11.65,4.75,10.51
258.36,10.83,3.73,10.04
258.41,8.79,1.65,7.53
258.46,7.3,0.24,5.92
258.51,6.71,0.43,5.06
258.56,5.88,1.41,5.06
258.61,4.75,1.22,5.57
258.67,4.63,1.29,6.43
258.72,5.37,2,7.92
258.77,5.92,2.16,8.98
258.82,6.08,2,9.3
258.87,7.92,2,10.04
258.92,9.49,2.39,10.87
258.97,10.59,3.77,11.1
259.02,10.75,4.86,9.06
259.07,7.34,3.49,5.61
259.12,5.65,2.08,4.98
259.18,5.65,2.31,5.73
259.23,5.3,2.24,5.57
259.28,4.79,1.22,6.08
259.33,5.41,0.47,7.14
259.38,6.28,0.59,9.3
259.43,8.08,1.88,9.92
259.48,9.92,3.61,9.73
259.53,11.61,4.31,9.53
259.58,10.51,3.88,9.49
259.64,8.24,0.78,6.75
259.69,7.3,-0.12,5.77
259.74,7.53,1.06,5.18
259.79,6.39,1.65,5.18
259.84,4.63,0.82,5.73
259.89,4.16,0.67,6.59
259.94,5.02,1.49,7.69
259.99,5.53,2.04,8.87
260.04,5.96,2.2,9.69
260.09,8.67,2.47,10.71
260.14,10.47,2.98,11.1
260.2,11.14,4.04,10.59
260.25,9.38,3.65,7.18
260.3,6.12,2.59,5.65
260.35,5.81,2.04,5.96
260.4,5.81,2.59,6
260.45,4.98,2.28,5.77
260.5,4.2,1.8,5.73
260.55,5.14,1.77,7.22
260.6,6.47,1.41,8.94
260.65,8.63,2.31,9.26
260.71,9.96,3.37,9.73
260.76,10.98,3.33,9.81
260.81,10.16,2.43,10
260.86,9.02,0.75,8.2
260.91,7.96,-0.04,6.08
260.96,7.18,0.08,4.79
261.01,6.08,0.75,4.71
261.06,4.9,0.47,5.45
261.11,4.63,0.55,6.35
261.17,4.47,1.53,7.49
261.22,4.94,2.86,8.79
261.27,5.73,3.53,9.85
261.32,8.87,3.41,10.98
261.37,12.24,3.45,12.32
261.42,13.22,5.02,10.9
261.47,9.26,3.57,6.55
261.52,5.61,2.08,3.8
261.57,5.3,1.53,4.39
261.62,5.53,1.61,5.22
261.67,5.18,1.49,5.37
261.73,5.1,1.22,6.35
261.78,6,1.29,7.37
261.83,6.94,1.69,8.55
261.88,8.24,2.28,9.06
261.93,10.04,3.53,9.49
261.98,11.41,3.8,9.65
262.03,10.4,2.94,9.22
262.08,9.73,2.24,7.92
262.13,7.96,1.18,5.69
262.18,6.67,1.02,4.16
262.24,5.45,1.33,4.59
262.29,4.55,1.22,5.1
262.34,4.16,1.49,5.88
262.39,4.63,2.28,7.1
262.44,5.49,2.63,8.39
262.49,6.71,2.82,9.92
262.54,9.06,2.55,10.4
262.59,10.63,3.1,11.1
262.64,12.28,3.96,10.71
262.7,10,3.33,7.41
262.75,6.51,2.2,4.98
262.8,5.33,1.77,4.47
262.85,5.02,2.59,5.1
262.9,5.02,2.31,5.57
262.95,4.98,1.65,6.79
263,5.77,1.1,8.16
263.05,6.35,1.41,9.73
263.1,8.2,2.63,9.73
263.15,10,4.31,9.61
263.2,10.83,3.65,9.65
263.26,10.16,2.75,9.77
263.31,8.9,1.1,7.85
263.36,8.04,0.12,6.24
263.41,6.59,0.2,5.06
263.46,4.63,0.67,5.02
263.51,3.77,0.94,5.49
263.56,3.84,1.57,6.43
263.61,4.59,2.43,7.77
263.66,5.53,2.98,9.06
263.71,6.94,3.49,10.4
263.77,10.16,3.45,12.36
263.82,12.59,3.73,13.34
263.87,12.36,3.37,9.06
263.92,5.53,1.49,4.9
263.97,4.16,2.43,4.31
264.02,4.67,3.06,5.69
264.07,4.9,2.39,6.08
264.12,4.9,1.88,6.71
264.17,5.53,1.84,7.81
264.23,6.43,1.53,8.9
264.28,7.53,1.88,9.41
264.33,10.04,3.84,9.61
264.38,11.49,4,9.06
264.43,9.77,2.04,9.61
264.48,8.79,2.51,6.86
264.53,7.77,1.88,5.26
264.58,6.16,1.14,4.71
264.63,5.02,1.37,5.73
264.68,4.86,1.06,6.39
264.73,4.79,1.49,6.71
264.79,5.45,2.55,7.61
264.84,5.81,2.82,8.87
264.89,6.67,2.12,10.12
264.94,10.24,2,10.83
264.99,12.43,4.75,12.16
265.04,10.98,4.28,8.51
265.09,7.14,2.98,5.18
265.14,5.65,2.16,4.67
265.19,5.53,2.63,5.26
265.24,5.06,2.2,5.61
265.3,4.31,1.41,5.88
265.35,4.67,1.22,7.3
265.4,6.55,1.77,9.38
265.45,8.24,2.24,10.4
265.5,9.41,2.82,10.28
265.55,10.98,3.92,9.92
265.6,10.16,4.28,9.53
265.65,10.08,2.08,7.37
265.7,9.38,-0.31,6.08
265.76,7.77,-0.12,5.22
265.81,5.77,0.59,4.59
265.86,3.84,0.82,4.98
265.91,3.84,1.14,5.96
265.96,4.31,2.04,7.57
266.01,4.35,2.59,8.59
266.06,5.02,2.94,9.38
266.11,7.57,3.61,11.26
266.16,10.51,4,12.28
266.21,12.12,4.67,12.08
266.27,9.65,2.75,7.1
266.32,6.04,1.96,5.49
266.37,6.16,1.77,5.53
266.42,6.04,1.77,5.84
266.47,4.71,1.02,5.77
266.52,4.47,0.75,6.32
266.57,5.81,1.26,7.49
266.62,6.67,3.06,8.43
266.67,7.18,3.1,8.47
266.72,9.3,5.14,10.12
266.77,10.12,4.59,9.81
266.83,9.53,4.79,8.63
266.88,8.32,3.06,6.79
266.93,7.53,0.86,6.04
266.98,5.77,0.86,6.12
267.03,4.67,1.65,6.2
267.08,3.77,2.35,6.16
267.13,4.08,2.94,7.18
267.18,5.06,3.69,8.83
267.23,5.84,3.8,9.77
267.29,7.14,3.3,10.4
267.34,8.51,4.28,10.83
267.39,10.12,5.65,10.4
267.44,8.79,4.75,7.3
267.49,6.2,3.96,5.49
267.54,6.08,3.33,6.32
267.59,5.61,2.82,6.71
267.64,5.02,2.08,6.83
267.69,5.06,1.41,6.86
267.74,5.02,1.18,7.77
267.8,5.61,1.8,7.81
267.85,6.98,3.14,7.96
267.9,9.57,4.12,9.22
267.95,9.85,3.06,9.92
268,9.69,3.49,9.34
268.05,8.28,2.24,7.85
268.1,8.12,2.43,7.18
268.15,7.3,2.82,6.63
268.2,4.98,2.28,6.28
268.25,3.53,1.77,6.63
268.3,3.73,2.31,7.45
268.36,4.71,3.18,8.55
268.41,5.41,3.37,9.34
268.46,6.04,2.9,9.96
268.51,8.16,3.45,11.18
268.56,8.24,3.53,11.65
268.61,9.41,5.73,10.28
268.66,8.08,5.61,5.92
268.71,5.57,3.61,5.49
268.76,6.55,3.06,6.28
268.82,5.57,2.24,6.28
268.87,4.35,1.88,5.84
268.92,4.59,2.08,6.35
268.97,5.53,2.24,8
269.02,5.96,2.16,8.94
269.07,6.86,2.55,9.3
269.12,8.55,4.9,10.08
269.17,9.69,3.88,10.67
269.22,9.34,4.43,10
269.27,7.85,2.71,7.41
269.33,7.1,2.75,6.12
269.38,7.1,3.06,5.81
269.43,4.9,2.51,5.84
269.48,3.41,1.88,6.2
269.53,3.61,2.08,7.41
269.58,4.2,2.94,9.02
269.63,4.59,3.41,9.92
269.68,4.98,3.49,10.16
269.73,7.57,4.55,11.38
269.78,8.87,4.94,11.77
269.83,9.92,4.2,11.45
269.89,8.16,3.61,7.81
269.94,5.33,3.92,5.88
269.99,4.71,3.53,5.69
270.04,5.14,3.18,6.04
270.09,4.24,2.16,6.39
270.14,4.59,1.96,6.83
270.19,5.45,2.31,8.2
270.24,6.39,2.08,9.26
270.29,6.51,1.37,9.45
270.35,7.06,2.9,9.73
270.4,8.36,4.12,10.4
270.45,8.98,5.26,10.4
270.5,9.45,4.28,9.22
270.55,7.85,1.26,7.37
270.6,5.84,0.39,6.51
270.65,4.47,1.41,5.88
270.7,3.73,1.8,6.39
270.75,3.92,2.47,7.61
270.8,4.35,3.18,8.51
270.86,4.55,3.41,9.26
270.91,5.37,2.51,9.81
270.96,6.24,2.47,11.26
271.01,7.73,3.73,10.98
271.06,9.61,5.37,11.89
271.11,7.26,4.75,7.92
271.16,4.86,3.69,6.16
271.21,5.33,3.84,6.47
271.26,6.2,3.92,7.06
271.31,4.63,2.39,6.51
271.36,4.12,1.8,6.55
271.42,4.9,2.28,7.81
271.47,6.04,2.08,9.41
271.52,6.59,2.55,9.81
271.57,7.14,4.55,9.92
271.62,8.79,5.33,9.89
271.67,8.67,5.22,10.55
271.72,7.88,2.9,8.43
271.77,6.75,1.06,7.85
271.82,6.63,0.82,6.86
271.87,5.41,1.61,6.51
271.93,4.2,1.61,6.47
271.98,4.04,1.53,7.49
272.03,4.51,1.8,8.63
272.08,4.63,2.55,8.9
272.13,4.71,3.14,9.22
272.18,6.47,3.53,10.24
272.23,9.02,4.35,11.45
272.28,10.51,5.84,12.75
272.33,9.14,5.02,8.87
272.39,5.1,3.41,6.43
272.44,5.45,2.67,6.43
272.49,5.69,3.57,6.94
272.54,6.2,4.71,6.59
272.59,2.35,2.28,6.9
272.64,3.41,4.67,7.14
272.69,3.45,6.04,6.47
272.74,3.22,5.61,6.59
272.79,2.63,6.83,7.53
272.84,4.04,10.16,9.18
272.89,6.35,10.79,8.87
272.95,5.96,9.85,8.75
273,5.92,8.36,6.39
273.05,6.2,5.81,5.41
273.1,6,4.79,4.9
273.15,4.71,3.77,3.49
273.2,2.63,3.92,4
273.25,2.47,4.12,5.33
273.3,3.26,4.82,6.59
273.35,4.9,6.63,7.73
273.4,6.24,7.53,8.16
273.46,6.9,8.12,9.57
273.51,8.71,9.18,10.28
273.56,9.77,8.79,8.55
273.61,7.3,6.86,4.86
273.66,4.94,6.39,4.08
273.71,4.75,5.33,3.84
273.76,4.43,4.2,3.96
273.81,4.04,3.26,4.51
273.86,4.39,3.77,4.39
273.92,6.08,4.39,6.47
273.97,7.69,4.16,8
274.02,8.16,3.3,8.55
274.07,7.49,5.14,9.89
274.12,9.02,7.88,9.26
274.17,8.71,10.08,8.87
274.22,7.02,8.2,4.63
274.27,5.33,6.51,3.8
274.32,4.79,5.26,3.18
274.37,3.65,4.82,3.53
274.42,2.55,4.43,3.8
274.48,2.31,5.77,4.71
274.53,3.33,6.39,5.88
274.58,3.92,7.53,7.49
274.63,4.86,7.57,7.85
274.68,6.12,9.18,8.87
274.73,7.41,9.49,9.1
274.78,8.28,9.45,8.2
274.83,6.9,7.1,4.82
274.88,4.2,7.18,4.31
274.93,4.86,6.83,4.47
274.99,4.79,5.45,4.2
275.04,3.61,4,4.71
275.09,3.41,4.08,5.41
275.14,4.67,4.86,6.51
275.19,5.73,5.33,7.88
275.24,6.51,5.26,7.85
275.29,7.34,6.86,7.85
275.34,8.79,8.67,8.83
275.39,8.43,6.86,6.51
275.45,7.34,5.41,5.37
275.5,6.75,4.31,5.22
275.55,6.04,4.39,5.84
275.6,5.33,3.77,5.96
275.65,4.2,2.86,6.35
275.7,4.28,3.41,7.22
275.75,4.24,4.35,7.45
275.8,4.94,5.18,7.57
275.85,5.41,6.16,7.88
275.9,7.69,7.02,7.92
275.95,8.36,7.45,8.98
276.01,9.26,8.94,7.88
276.06,6.9,6.83,4.12
276.21,4.82,5.84,4.94
276.26,4.28,4.59,5.49
276.31,4.12,4.55,6.35
276.36,4.43,4.55,6.94
276.41,5.3,5.18,7.53
276.46,5.92,6.35,7.22
276.52,6.43,8.67,7.96
276.57,7.45,10.04,8
276.62,7.41,8.94,6.59
276.67,7.18,8.08,5.69
276.72,6,5.45,5.41
276.77,5.73,4.43,5.22
276.82,3.88,4.24,5.37
276.87,3.3,4.39,5.26
276.92,3.1,4.98,6.35
276.98,3.22,5.73,7.34
277.03,3.8,6,7.49
277.08,4.24,6.51,7.85
277.13,5.3,7.3,9.14
277.18,6.67,8.36,9.18
277.23,7.18,8.98,9.22
277.28,7.57,8.04,5.57
277.33,4.31,6.86,4.16
277.38,4.39,5.57,4.63
277.43,4.94,5.49,5.22
277.48,4.51,3.88,5.02
277.54,3.92,4,5.37
277.59,4.67,4.98,6.32
277.64,5.41,5.18,7.69
277.69,6.04,5.61,8.36
277.74,6.86,7.02,8.87
277.79,8.75,9.34,9.34
277.84,8.59,8.24,7.37
277.89,6.9,5.88,5.84
277.94,5.73,4.47,5.33
277.99,5.45,4.28,5.45
278.05,4.71,4.2,5.3
278.1,3.18,4.04,5.53
278.15,2.82,4.79,6.59
278.2,3.33,5.65,7.26
278.25,4.16,6.32,7.49
278.3,4.39,7.06,8.12
278.35,7.06,8.28,9.26
278.4,7.26,8,9.73
278.45,7.85,7.77,8.16
278.51,6.59,5.61,4.86
278.56,4.63,4.9,4.55
278.61,4.75,4.75,4.59
278.66,5.3,6.04,4.59
278.71,4.39,5.1,5.26
278.76,4.55,5.02,6.39
278.81,5.37,5.73,7.77
278.86,5.65,5.53,8
278.91,6.12,5.92,7.53
278.96,7.18,6.9,7.45
279.02,6.94,8.75,7.69
279.07,8.32,9.1,7.37
279.12,7.77,5.84,5.84
279.17,6.94,3.69,6.43
279.32,3.88,1.61,5.96
279.37,3.96,2.79,7.45
279.42,4.94,3.53,8.59
279.47,5.22,3.57,9.38
279.52,5.53,4.04,9.92
279.58,7.85,4.86,10.55
279.63,8.43,4.98,10.51
279.68,7.73,5.06,10.2
279.73,6.83,4.2,6.2
279.78,4.9,4.51,5.57
279.83,5.41,5.18,6.63
279.88,6.12,4.9,6.16
279.93,4.35,3.18,6.12
279.98,3.77,3.26,7.02
280.04,4.43,2.86,8
280.09,5.06,3.53,9.57
280.14,5.81,4.94,8.43
280.19,6.47,7.57,8.43
280.24,7.96,8.75,8.28
280.29,7.65,8.2,8.2
280.34,6.75,5.92,6.86
280.39,6.32,3.96,6.47
280.44,6.35,3.61,6.39
280.49,5.3,3.57,5.81
280.55,3.61,3.3,5.49
280.6,3.02,4.16,5.84
280.65,4.31,5.69,7.37
280.7,4.94,6.35,8.43
280.75,5.61,5.45,9.26
280.8,6.67,5.84,9.77
280.85,7.22,6.43,9.18
280.9,7.22,7.37,9.77
280.95,7.34,6,5.69
281,5.77,6.08,4.47
281.05,5.77,5.57,5.1
281.11,6.43,4.94,5.45
281.16,5.22,2.9,5.33
281.21,4.43,2.55,5.92
281.26,4.9,3.1,7.34
281.31,6.24,3.73,8.08
281.36,6.83,5.06,8.32
281.41,6.94,6.28,8.51
281.46,6.83,4.86,12.16
281.51,8.83,8.79,8.16
281.57,8.55,8.2,4.63
281.62,7.37,5.1,3.65
281.67,6.28,3.73,4.2
281.72,5.14,3.1,5.61
281.77,4.12,2.59,6.9
281.82,3.69,2.9,8.04
281.87,3.65,3.69,8.16
281.92,4.16,4.94,8.04
281.97,4.55,6.16,8.43
282.02,6.79,7.77,8.24
282.08,8.43,8.28,9.92
282.13,9.18,8,8.87
282.18,6.9,6,4.75
282.23,4.47,5.61,4.43
282.28,4.86,5.81,5.1
282.33,5.14,5.26,5.14
282.48,4.04,3.96,7.22
282.53,4.98,4.63,8.59
282.58,5.65,5.57,8.83
282.64,6.71,7.69,8.75
282.69,8.47,8.9,8
282.74,7.81,8.32,7.18
282.79,7.37,6.2,6.24
282.84,6.83,4.86,6
282.89,6.67,4.39,5.77
282.94,4.98,4.04,5.33
282.99,2.94,3.45,5.88
283.04,2.98,4.12,7.1
283.1,4.35,5.02,8.04
283.15,4.98,5.81,8.36
283.2,5.14,6.35,8.67
283.25,6.71,6.75,9.18
283.3,7.65,6.9,9.69
283.35,8.9,7.1,8.79
283.4,7.02,5.92,5.84
283.45,4.51,5.22,4.82
283.5,5.06,5.18,5.22
283.55,5.26,4.71,5.41
283.61,4.47,3.53,6.04
283.66,4.35,3.18,6.75
283.71,5.06,3.65,8.04
283.76,5.81,3.92,8.79
283.81,6.04,4.94,9.22
283.86,7.02,6.39,9.1
283.91,8.67,8,9.45
283.96,8.75,7.49,8.75
284.01,7.22,4.67,6.83
284.06,6.55,2.98,6.12
284.11,6.67,2.63,5.57
284.17,5.65,3.02,5.45
284.22,4.04,3.06,5.53
284.27,3.88,3.73,6.63
284.32,4.51,4.35,7.61
284.37,4.75,4.79,8.67
284.42,5.41,5.45,8.79
284.47,6.86,6.47,8.9
284.52,7.81,6.75,9.38
284.57,9.3,7.45,10.08
284.62,8.51,5.88,6.59
284.68,5.45,5.3,5.37
284.73,5.96,4.63,5.49
284.78,5.84,3.41,5.33
284.83,4.39,2.12,5.41
284.88,4.24,2.86,6.75
284.93,5.57,2.55,7.73
284.98,5.53,2.39,8.63
285.03,6,3.26,8.75
285.08,6.94,4.31,9.14
285.14,8.04,6.71,10.4
285.19,9.38,7.49,10.04
285.24,8.71,5.33,7.96
285.29,6.35,3.26,6.16
285.34,6.55,2.2,6.04
285.39,6.43,2.28,6.28
285.44,5.02,2.24,6.35
285.49,4.43,2.39,6.63
285.54,4.43,2.79,7.45
285.59,5.69,3.02,9.02
285.64,6.47,3.14,9.69
285.7,7.18,2.67,9.81
285.75,7.41,2.82,10.2
285.8,7.61,4,10.9
285.85,8.87,5.26,9.69
285.9,6.51,5.02,5.81
285.95,4.79,4.94,5.22
286,5.57,4.75,5.22
286.05,5.49,3.77,5.92
286.1,4.75,2.08,6.43
286.15,4.79,1.96,7.26
286.21,5.1,1.88,8.67
286.26,5.22,2,9.69
286.31,6.12,3.37,9.85
286.36,8.2,5.53,10.04
286.41,9.18,5.88,9.92
286.46,9.1,5.53,8.2
286.51,8.2,4.04,6.67
286.56,7.61,3.14,6.43
286.61,6.12,2.08,6.51
286.67,4.08,1.57,6.35
286.72,3.45,1.96,6.75
286.77,3.88,2.47,7.57
286.82,4.55,3.53,8.67
286.87,5.06,4.2,9.1
286.92,6.35,4.9,9.69
286.97,7.69,5.02,9.96
287.02,8,4.55,11.96
287.07,9.38,5.22,10.28
287.12,7.06,4.79,6.32
287.17,5.81,5.3,6.75
287.23,5.73,3.77,6.24
287.28,4.28,2.59,6
287.33,4.2,2.55,6.32
287.38,4.82,3.02,7.26
287.43,5.57,3.14,8.47
287.48,5.65,2.71,8.79
287.53,6.28,3.8,9.06
287.58,8.12,5.26,9.65
287.63,9.61,6.12,11.02
287.68,9.1,5.18,9.06
287.74,6.47,2.75,6.9
287.79,6.08,1.96,6.9
287.84,6,2.31,7.37
287.89,4.39,2.12,7.14
287.94,3.37,2.2,7.34
287.99,4.04,2.59,7.96
288.04,4.71,3.57,8.51
288.09,5.14,4.67,8.94
288.14,6.47,4.9,9.69
288.2,7.85,4.9,10.04
288.25,7.88,4.43,11.02
288.3,8.98,5.26,9.22
288.35,5.92,4.35,6.04
288.4,4.82,3.45,6
288.45,5.84,2.98,6.94
288.5,5.49,2.59,7.1
288.55,4.35,2.04,7.14
288.6,4.43,1.96,7.49
288.65,5.18,2.31,8.59
288.7,5.73,3.02,8.98
288.76,6.43,4.35,9.18
288.81,8.28,5.49,9.96
288.86,8.36,4.94,10
288.91,8.51,4.28,9.65
288.96,7.41,2.39,8.28
289.01,6.98,0.9,7.85
289.06,6.12,0.86,7.73
289.11,4.59,1.02,7.53
289.16,3.49,1.22,7.65
289.21,3.65,2,8.43
289.27,4.39,2.94,8.79
289.32,4.55,3.77,8.47
289.37,5.26,3.8,9.49
289.42,6.47,4.28,10.32
289.47,7.53,3.96,12
289.52,9.69,4.9,11.26
289.57,7.02,4.59,6.47
289.62,5.49,5.06,6.28
289.67,6.51,4.35,6.39
289.73,5.81,2.98,6.43
289.78,4.67,1.84,6.79
289.83,4.47,1.77,7.41
289.88,5.02,2.04,8.32
289.93,5.02,2.16,8.79
289.98,5.45,3.49,9.14
290.03,7.02,5.37,9.69
290.08,8.12,5.33,10.71
290.13,8.98,5.26,10.51
290.18,6.94,4.16,8.47
290.23,6,2.86,7.37
290.29,5.65,2.24,6.98
290.34,4.55,2.51,6.51
290.39,3.41,3.02,6.47
290.44,3.41,3.65,7.65
290.49,4.2,4.47,8.55
290.54,4.43,4.47,8.87
290.59,4.59,4.71,9.65
290.64,6.59,4.98,10.28
290.69,6.59,4.94,9.92
290.74,8.39,6.47,10.43
290.8,8.04,4.86,6.35
290.85,6.35,4.9,6.63
290.9,6.71,4.12,6.86
290.95,5.45,3.37,6.55
291,4.04,2.55,6.28
291.05,4.2,2.43,6.94
291.1,4.71,2.82,7.96
291.15,5.1,3.18,8.39
291.2,5.14,4.28,8.51
291.26,6.83,5.61,8.79
291.31,7.96,5.84,9.69
291.36,9.61,6.63,11.49
291.41,8.98,5.41,8.79
291.46,5.77,2.82,6.86
291.51,5.26,1.92,6.67
291.56,5.02,2.59,7.06
291.61,4.16,2.94,7.02
291.66,4.2,3.33,7.77
291.71,4.63,3.57,8.59
291.77,4.35,3.3,8.79
291.82,4.94,3.49,8.71
291.87,6.2,4.39,9.65
291.92,6.98,4.82,9.22
291.97,7.41,6.24,13.18
292.02,8.28,4.47,8.39
292.07,5.26,5.3,7.37
292.12,6.12,4.67,7.02
292.17,5.22,3.18,6.51
292.22,3.69,2.43,6.2
292.27,3.96,2.79,6.86
292.33,4.9,3.3,7.88
292.38,5.41,3.14,8.75
292.43,5.37,3.14,9.02
292.48,6.9,4.35,8.9
292.53,8,4.98,9.57
292.58,9.53,6.35,10.47
292.63,8.28,4.82,8.08
292.68,6.12,2.9,7.57
292.73,6.2,2.24,8.2
292.79,5.02,2.47,8
292.84,3.49,2.55,7.1
292.89,3.14,3.26,7.22
292.94,3.77,4,7.45
292.99,4.12,4.98,7.96
293.04,4.59,5.69,8.51
293.09,6.94,6.08,9.53
293.14,6.43,5.3,9.61
293.19,8.12,6.63,11.53
293.24,9.26,5.65,7.81
293.3,5.41,5.18,6.67
293.35,5.49,3.61,6.71
293.4,5.41,3.77,6.71
293.45,4.39,3.1,6.9
293.5,4.12,3.02,7.02
293.55,4.79,3.14,7.85
293.6,4.94,3.22,8.28
293.65,4.59,3.8,8.2
293.7,5.92,4.98,8.43
293.75,7.41,5.81,9.34
293.8,7.92,5.61,8.87
293.86,9.14,5.49,9.22
293.91,7.61,3.33,8.55
293.96,7.26,2.75,8.55
294.01,6.35,2.86,7.57
294.06,4.04,2.55,7.41
294.11,2.9,2.47,7.49
294.16,3.41,2.86,7.92
294.21,4.2,4.47,7.85
294.26,4.39,5.1,7.81
294.32,4.79,5.33,8.28
294.37,6.55,5.41,9.41
294.42,8.55,6.16,12.4
294.47,10.04,5.37,10.36
294.52,5.02,5.45,6.94
294.57,5.1,5.06,5.73
294.62,5.45,5.02,6.35
294.67,4.24,3.77,6.12
294.72,3.69,3.14,6.35
294.77,4.31,3.77,7.41
294.83,5.57,4.63,8.32
294.88,4.79,3.88,8.47
294.93,5.02,4.71,8.59
294.98,6.51,5.57,9.3
295.03,6.75,5.1,9.96
295.08,9.69,5.69,10.63
295.13,7.41,5.02,7.96
295.18,5.65,3.3,6.71
295.23,6.04,2.59,7.77
295.28,4.28,2.31,7.92
295.33,3.14,2.39,7.3
295.39,3.41,3.37,7.81
295.44,3.8,4.35,8.32
295.49,3.88,4.67,8.32
295.54,4.82,5.57,8.83
295.59,6.43,6.12,10.04
295.64,7.18,5.33,11.49
295.69,8,6.55,11.65
295.74,6.47,5.88,5.49
295.79,4.43,5.61,5.53
295.85,5.37,4.9,6.43
295.9,4.43,3.73,6.32
295.95,4,3.57,6.71
296,5.06,4.86,6.71
296.05,4.94,4.31,7.34
296.1,4.94,4.51,7.49
296.15,5.53,5.33,8.9
296.2,6.35,6.59,9.65
296.25,7.53,5.84,9.38
296.3,8.04,7.45,9.26
296.36,9.69,6.04,8.43
296.41,7.92,2.94,7.18
296.46,6.35,0.98,6.35
296.51,4.71,1.02,6.39
296.56,3.8,1.29,5.92
296.61,3.92,2.24,6.86
296.66,4.86,3.49,8.36
296.71,4.79,4,8.87
296.76,4.98,4.31,9.14
296.81,7.18,4.9,9.45
296.86,7.45,4.82,10.32
296.92,9.89,6.83,11.14
