NAME:,walk_5_1.csv,,
EXPERIMENT TIME:,25/05/2022 15:52,,
ACTIVITY TYPE:,Walking,,
COUNT OF ACTUAL STEPS,104,,
,,,
Time [sec],ACC X,ACC Y,ACC Z
0,-0.86,1.77,-11.81
0.041,-1.1,1.61,-12.16
0.082,-2.31,0.12,-12.43
0.123,-3.14,1.45,-12.4
0.164,-1.53,2.94,-12.08
0.205,-1.1,2.31,-11.34
0.246,-0.78,1.22,-10.55
0.287,0.63,0.82,-10.51
0.328,0.67,1.96,-10.04
0.369,1.45,1.33,-10.4
0.41,3.26,0.78,-12.32
0.451,5.33,-1.33,-13.49
0.492,0.31,-0.63,-11.26
0.533,-2.86,4.86,-11.73
0.574,3.02,2.31,-13.38
0.615,1.69,-1.1,-10.36
0.656,3.37,1.26,-8.71
0.697,3.22,2.71,-9.34
0.738,0.04,1.02,-9.22
0.779,0.78,1.45,-11.34
0.82,-0.75,1.84,-11.38
0.861,-1.06,1.96,-10.71
0.902,-1.33,1.96,-10.12
0.943,-0.12,2.67,-10.04
0.984,-0.67,1.26,-10.36
1.025,-0.35,0.9,-11.69
1.066,-2.12,1.45,-12.79
1.107,-2,2.2,-14.83
1.148,-2.43,1.69,-15.93
1.189,-4.35,2.35,-14.28
1.23,-3.3,0.2,-13.14
1.271,-0.63,1.14,-13.65
1.312,-1.1,2.75,-13.38
1.353,-0.55,0.78,-13.42
1.394,0.04,1.26,-13.26
1.435,-1.1,1.49,-12.55
1.476,1.29,0.75,-13.1
1.517,1.22,0.24,-12.47
1.558,1.77,0.08,-11.26
1.6,1.53,0.08,-9.96
1.641,1.49,-0.12,-8.87
1.682,1.69,-0.51,-8
1.723,2.94,1.1,-8.51
1.764,4.08,0.98,-9.85
1.805,6.79,1.53,-13.89
1.846,1.8,0.35,-13.73
1.887,-4.86,4.94,-14.16
1.928,0,5.14,-17.42
1.969,-2.47,0.39,-14.83
2.01,-2.43,0.78,-10.55
2.051,-0.63,3.41,-9.53
2.093,0.04,0.9,-8.9
2.134,0.47,0.82,-9.81
2.175,-0.08,1.02,-11.1
2.216,-1.69,0.75,-11.81
2.257,-5.02,1.84,-11.89
2.298,-4.28,2.04,-12.43
2.339,-3.3,2.28,-13.38
2.38,-3.3,2.86,-14.36
2.421,-2.51,2.82,-15.89
2.462,-4.9,2.86,-14.08
2.503,-3.65,1.41,-13.1
2.544,-0.94,2.35,-13.49
2.585,-0.12,4.08,-14.87
2.626,0.04,1.8,-16.16
2.667,-1.61,-0.16,-15.22
2.708,-1.69,0.24,-14.36
2.749,0.75,1.57,-13.89
2.79,2.43,0.2,-12.83
2.831,1.26,-0.82,-10.24
2.872,1.88,-0.71,-8.94
2.913,2.31,-0.27,-7.92
2.954,4,-2.12,-9.02
2.995,2.16,-2.63,-9.89
3.036,2.51,1.22,-11.49
3.077,1.8,2.86,-11.41
3.118,-3.84,5.57,-11.02
3.159,1.14,2.28,-13.65
3.2,-0.82,3.69,-14.63
3.241,-2.43,3.14,-12.83
3.282,-2.24,2.9,-12.32
3.323,-2.59,0.59,-11.57
3.364,-0.82,-1.49,-12.4
3.405,-1.84,2.24,-12.63
3.446,-2.63,0.63,-12.47
3.487,-4.71,0.27,-11.18
3.528,-4.71,0.55,-11.34
3.569,-3.88,1.92,-12.59
3.61,-4.63,1.69,-13.61
3.651,-3.26,1.77,-16.4
3.692,-6.08,3.06,-14.04
3.733,-3.77,1.61,-13.96
3.774,-0.24,1.92,-14.95
3.815,-1.22,4.82,-15.1
3.856,-0.78,2.12,-14.98
3.897,-1.96,0.55,-13.69
3.938,-0.39,1.61,-13.77
3.979,1.22,1.45,-13.53
4.02,1.29,0.55,-12.08
4.061,2.08,-0.12,-11.14
4.102,0.63,-0.55,-8.83
4.143,2.31,-0.24,-8.63
4.184,4.59,-0.31,-9.02
4.225,5.14,-0.51,-10.2
4.266,6.75,-0.24,-12.12
4.307,-0.08,0.27,-12
4.348,-0.71,5.14,-15.61
4.389,-0.24,5.49,-17.1
4.43,-2.28,1.8,-13.69
4.471,-1.57,3.18,-10.9
4.512,-0.51,2.47,-10.47
4.553,-0.39,1.06,-11.1
4.594,-0.47,1.49,-12.79
4.635,-2.08,1.92,-13.61
4.676,-4.04,1.92,-13.53
4.717,-6.79,1.41,-11.57
4.758,-6.35,2.86,-12.75
4.799,-4.98,2.79,-14.08
4.84,-2.98,2.55,-16.63
4.881,-6.35,3.3,-14.51
4.922,-4.24,2.24,-15.34
4.963,-2,1.84,-16.51
5.004,-1.84,3.49,-17.06
5.045,-1.57,2.24,-16.48
5.086,-0.12,0.94,-15.89
5.127,1.53,1.37,-14.87
5.168,3.22,1.57,-13.65
5.209,3.22,0.43,-11.96
5.25,2.31,0.04,-10
5.291,0.98,-1.02,-8.24
5.332,3.77,-0.71,-9.02
5.374,4.04,0.24,-9.81
5.415,6.43,-0.55,-12.24
5.456,5.61,-2.12,-13.42
5.497,-2.9,4.55,-12.32
5.538,3.26,7.22,-17.46
5.579,-0.2,2.47,-14.32
5.62,1.14,2.16,-12.47
5.661,0.2,5.06,-12.36
5.702,0.04,1.18,-12.43
5.743,-1.14,-1.45,-12.75
5.784,-2.75,0.9,-14.2
5.825,-4.2,0.9,-13.45
5.867,-4.9,-1.65,-12.47
5.908,-3.45,-0.51,-13.89
5.949,-4.67,1.53,-15.57
5.99,-4.43,-0.55,-17.85
6.031,-7.45,0.24,-14.83
6.072,-9.65,2.28,-12.71
6.114,-0.55,4.2,-16.83
6.155,-4.55,4.51,-16.04
6.196,-2.75,2.51,-16.24
6.237,-2.16,3.57,-16.44
6.278,0.39,2.98,-16.59
6.319,3.06,2.71,-15.34
6.36,5.65,1.8,-14.04
6.401,2.39,0.43,-11.06
6.442,2.16,-0.2,-10.43
6.483,2.2,-0.98,-9.81
6.524,3.45,0,-10.4
6.565,3.41,-1.49,-10.16
6.606,5.53,-1.41,-11.61
6.647,0.98,-0.9,-10.47
6.688,0.59,2.98,-12.75
6.729,2.82,6.04,-15.26
6.77,1.22,3.06,-14.04
6.811,-0.2,2.31,-12
6.852,-0.94,6.28,-11.81
6.893,0.04,4.59,-12.2
6.934,-1.53,0.16,-12.75
6.975,-2.2,1.57,-14
7.016,-4,1.57,-13.42
7.057,-5.77,1.06,-11.92
7.098,-5.33,1.1,-11.65
7.139,-5.06,2.55,-13.96
7.18,-4.28,2.79,-17.5
7.221,-8,3.02,-15.1
7.262,-5.22,0.86,-14.95
7.303,-0.39,2.67,-16.2
7.344,-3.41,4.98,-15.85
7.385,-2.12,1.73,-15.38
7.426,-1.96,2.28,-14.98
7.467,-0.2,3.1,-15.42
7.508,2,1.77,-14
7.549,3.92,0.82,-13.57
7.59,3.45,0.16,-11.61
7.631,1.1,0.9,-9.77
7.672,3.33,-0.2,-10.36
7.713,3.49,-1.61,-9.45
7.754,4.79,-0.2,-11.57
7.795,6.47,-0.47,-12.51
7.836,-0.63,0.82,-11.45
7.877,2.08,4.98,-15.22
7.918,1.69,5.45,-15.81
7.959,-1.02,1.96,-12.51
8,-0.16,4.79,-12.63
8.041,-0.67,3.14,-12.59
8.082,-1.61,0.59,-12.98
8.123,-2.55,-0.59,-13.69
8.164,-4.39,2.43,-14.44
8.205,-5.84,1.1,-12.79
8.246,-7.22,0.12,-12.12
8.287,-5.41,2.39,-13.61
8.328,-5.37,3.3,-16.63
8.369,-5.81,2.79,-15.18
8.41,-6.32,2.2,-14.36
8.451,-0.08,2.47,-16.32
8.492,-2.16,4.94,-16
8.533,-2.71,3.53,-16.16
8.574,-1.37,3.1,-16.4
8.615,-0.55,3.26,-16.32
8.656,1.29,1.92,-16.12
8.697,2.43,1.18,-13.85
8.738,3.92,1.49,-12.55
8.779,3.61,0.82,-10.98
8.82,-0.27,-0.94,-7.88
8.861,3.84,-1.06,-8.87
8.902,4.55,-0.2,-9.53
8.943,5.06,-0.12,-11.18
8.984,5.69,-0.67,-13.26
9.025,-1.77,0.78,-12.28
9.066,3.37,4.98,-16.36
9.107,2.67,4.47,-17.73
9.148,0.08,1.06,-16.99
9.189,-2.67,4.47,-17.02
9.23,-5.96,4.2,-15.22
9.271,-4.98,0.08,-14.12
9.313,-4.82,1.26,-13.18
9.354,-3.92,1.65,-12.12
9.395,-3.88,1.22,-11.34
9.436,-4.71,0.94,-11.14
9.477,-4.67,1.73,-11.92
9.518,-3.84,2.08,-14.79
9.559,-5.33,2.24,-15.53
9.6,-8.08,3.1,-14.44
9.641,-4.51,2.31,-16.79
9.682,-2.28,2.2,-18.67
9.723,-2,3.45,-18.95
9.764,-0.2,1.53,-18.04
9.805,-0.12,2.59,-16.67
9.846,3.26,1.88,-15.53
9.887,4.39,1.02,-13.45
9.928,3.18,1.18,-11.89
9.969,2.43,-0.04,-10.08
10.01,2.51,-1.45,-8.75
10.051,2.94,-0.27,-8.47
10.092,4.12,-0.35,-8.79
10.133,4.24,0.31,-10.83
10.174,4.59,-1.29,-13.61
10.215,-0.43,1.77,-14.4
10.256,0.47,6.39,-17.89
10.297,-0.43,1.61,-17.65
10.338,-3.73,2.31,-15.02
10.379,-3.02,4.79,-13.77
10.42,-3.77,2.75,-12
10.461,-2.39,0.51,-11.38
10.502,-1.84,0.9,-12
10.543,-2.71,0.78,-11.73
10.584,-3.61,0,-11.1
10.625,-5.02,-0.31,-10.79
10.666,-5.61,3.06,-13.81
10.707,-5.1,3.53,-17.1
10.748,-6.43,1.22,-14.75
10.789,-8.79,2.16,-13.06
10.83,-1.77,3.33,-16.28
10.871,-1.92,4.98,-15.65
10.912,-1.8,3.1,-14.63
10.953,-0.75,3.22,-14.16
10.994,-1.1,3.92,-13.81
11.035,0.86,3.37,-13.69
11.076,2.08,2.08,-13.14
11.117,2.16,1.22,-13.02
11.158,1.22,0.04,-11.34
11.199,1.61,0.2,-11.1
11.24,2.82,-0.63,-10.51
11.281,3.96,-0.98,-11.1
11.322,5.02,-0.67,-11.45
11.363,1.69,-1.53,-10.98
11.404,0.2,4.71,-12.55
11.445,5.14,5.77,-15.69
11.486,1.18,1.77,-13.49
11.527,-0.47,3.02,-12
11.568,-0.86,6.9,-12.2
11.609,-0.71,5.92,-12.75
11.65,-1.57,-0.86,-13.38
11.692,-4.51,1.14,-14.04
11.733,-5.41,1.65,-13.77
11.774,-7.18,0.12,-11.69
11.815,-5.84,0.67,-11.69
11.856,-4.24,1.88,-13.81
11.897,-4.67,2.43,-17.22
11.938,-7.65,3.14,-14.67
11.979,-4.39,0.12,-14.95
12.02,-2.9,3.22,-16.04
12.061,-1.29,3.88,-17.26
12.102,-1.26,2.67,-17.46
12.143,-0.51,3.49,-17.14
12.184,-0.04,2.55,-15.22
12.225,2.51,1.96,-13.77
12.266,4.12,1.49,-12.51
12.307,2.9,0.12,-10.32
12.348,2.39,-0.24,-9.18
12.389,3.49,0.43,-8.98
12.43,3.84,-1.1,-8.63
12.471,5.14,-0.16,-10.63
12.512,6.67,-1.65,-13.1
12.553,-0.78,1.22,-13.38
12.594,0.43,5.18,-15.49
12.635,3.26,4.12,-18.95
12.676,-2.43,2.12,-15.97
12.717,-1.92,4.98,-14.79
12.758,-4.16,3.92,-13.1
12.799,-3.8,0.86,-11.85
12.84,-2.59,1.02,-12.36
12.881,-2.31,1.41,-11.77
12.922,-2.63,0.55,-10.43
12.963,-3.92,0.08,-10.12
13.004,-5.3,2.04,-12.04
13.045,-4.86,3.06,-16.59
13.086,-6.55,2.79,-16.99
13.127,-9.3,2.82,-14.95
13.168,-3.77,2.35,-16.44
13.209,-0.63,4,-17.65
13.25,-1.73,2.82,-16.91
13.291,0.08,2.47,-15.49
13.332,-0.35,2.35,-14.32
13.373,1.88,3.8,-14.95
13.414,3.02,1.14,-13.34
13.455,2.82,-0.47,-11.77
13.496,2.94,-1.02,-10.24
13.537,1.8,-0.24,-8.87
13.578,3.49,-0.16,-9.06
13.619,3.49,-1.41,-8.51
13.66,5.02,0.04,-11.06
13.701,5.53,-0.27,-13.14
13.742,1.18,-0.55,-14.83
13.783,-1.53,4.67,-16.48
13.824,0.04,5.02,-18.4
13.865,-1.57,2.12,-15.18
13.906,-2.16,3.61,-13.65
13.947,-3.18,2.67,-12.16
13.988,-2.12,0.12,-11.3
14.029,-2.12,-0.71,-11.1
14.07,-2.51,0.51,-11.57
14.111,-3.33,-0.43,-11.06
14.152,-4.9,-0.9,-10.28
14.193,-4.94,1.29,-12.16
14.234,-4.86,1.73,-14.87
14.275,-4.04,1.14,-16.75
14.316,-7.85,2.12,-13.93
14.357,-4.86,2.24,-14.67
14.398,-2.51,3.26,-16.32
14.439,-2.75,3.1,-16.83
14.48,-1.26,1.8,-16.28
14.521,-0.98,2.63,-15.18
14.562,0.35,2.24,-14.36
14.603,2.86,1.53,-12.87
14.644,3.1,1.45,-11.34
14.685,2.43,1.1,-9.96
14.726,1.96,-0.04,-8.87
14.767,2.71,-1.18,-9.06
14.808,3.84,-0.51,-10.59
14.849,4.04,-0.94,-12.67
14.89,4.08,-1.41,-14.36
14.931,-0.78,0.27,-13.73
14.972,-0.27,4.04,-15.18
15.013,1.73,2.51,-15.02
15.054,0.55,2.08,-14.2
15.095,-2.28,4.51,-12.87
15.136,-2.59,3.92,-11.89
15.177,-2.04,0.55,-11.57
15.218,-3.57,0.47,-11.26
15.259,-3.49,1.22,-11.49
15.3,-4.08,0.43,-10.9
15.341,-3.84,0.16,-10.71
15.382,-4.55,1.41,-11.85
15.423,-4.28,1.14,-13.65
15.464,-4.86,1.53,-15.77
15.505,-6.04,1.02,-14.2
15.546,-5.77,3.41,-13.69
15.587,-2.43,3.84,-15.69
15.628,-2.94,2.35,-16.44
15.669,-2.35,2.63,-17.06
15.71,-1.29,1.69,-16.08
15.751,-0.75,1.22,-14.44
15.792,1.14,1.41,-13.38
15.833,2.51,1.73,-11.69
15.874,2.79,1.02,-10.83
15.915,2.67,-0.51,-10
15.957,1.65,-0.63,-9.57
15.998,2.55,0.04,-10.36
16.039,3.26,-1.57,-10.63
16.08,4.94,-0.12,-13.22
16.121,2.24,0.43,-12.63
16.162,-1.06,2.08,-13.42
16.203,0.04,4.08,-15.77
16.244,0.59,1.8,-15.93
16.285,-1.84,1.02,-14.55
16.326,-3.18,3.69,-13.73
16.367,-3.37,1.06,-11.61
16.408,-2.47,-0.35,-11.77
16.449,-3.3,0.82,-11.34
16.49,-2.9,0.47,-11.41
16.531,-3.77,0,-10.16
16.572,-4.04,-0.12,-9.81
16.613,-4.43,2.28,-12.28
16.654,-4.24,2.2,-15.61
16.695,-6.55,1.29,-16.32
16.736,-8.98,1.8,-14.55
16.777,-4.43,1.57,-16.12
16.818,-2.08,2.47,-17.22
16.859,-1.06,2.24,-17.18
16.9,-0.12,1.61,-15.65
16.941,-0.2,2.08,-14.24
16.982,1.06,0.98,-13.1
17.023,2.08,1.29,-11.92
17.064,2.39,1.61,-10.79
17.105,1.84,1.06,-9.34
17.146,2.63,0.16,-7.81
17.187,4.08,-0.59,-10.24
17.228,3.06,-1.29,-9.85
17.269,4.67,-0.43,-12.51
17.311,3.18,-2.67,-13.18
17.352,-1.45,2.39,-15.1
17.393,-0.63,6.43,-17.93
17.434,-2.04,1.02,-15.65
17.475,-4.16,2.9,-12.32
17.516,-3.26,4.94,-11.22
17.557,-1.26,1.33,-10.83
17.598,-2,-0.16,-10.2
17.639,-2.51,0.9,-11.26
17.68,-3.22,0.75,-11.1
17.721,-4.24,-0.24,-10.9
17.762,-5.41,1.02,-11.45
17.803,-5.61,3.41,-14.32
17.844,-5.84,1.96,-15.85
17.885,-4.75,0.35,-15.42
17.926,-9.34,2.9,-12.47
17.967,-0.94,2.04,-15.49
18.008,-4.28,4.12,-14.28
18.049,-1.61,3.26,-15.14
18.09,-1.88,3.18,-13.89
18.131,-1.45,2.63,-12.98
18.172,-0.24,1.84,-12.28
18.213,1.26,2.16,-11.89
18.254,1.45,1.65,-11.45
18.295,1.29,0.27,-10.32
18.336,1.49,-0.27,-10.12
18.377,2.67,-0.86,-10.32
18.418,2.63,0.51,-10.79
18.459,5.02,-0.16,-12.36
18.5,0.67,-0.04,-12.16
18.541,-1.61,3.88,-14.63
18.582,-0.04,2.63,-15.38
18.623,-0.63,1.49,-14.12
18.664,-2.79,3.14,-11.81
18.705,-2.79,3.18,-10.9
18.746,-1.57,0.82,-11.06
18.787,-2.39,0.67,-11.57
18.828,-3.92,2.47,-12.28
18.869,-4.35,0.59,-11.92
18.91,-5.49,1.53,-11.18
18.951,-5.69,2.67,-11.69
18.992,-5.84,4.31,-14.04
19.033,-6.39,4.2,-16.04
19.074,-7.77,1.8,-14.51
19.115,-4.39,1.92,-16.08
19.156,-3.18,3.41,-16.59
19.197,-2.82,2.75,-16.91
19.238,-1.8,1.84,-15.69
19.279,-1.22,2.08,-14.71
19.321,-0.39,2.71,-13.73
19.362,1.37,1.65,-12.91
19.403,1.26,0.82,-11.41
19.444,1.8,-0.16,-10.51
19.485,1.69,-0.47,-9.14
19.526,2.35,0,-9.14
19.567,4.12,-0.59,-10.32
19.608,4.55,-0.35,-11.85
19.649,1.77,-0.2,-12.12
19.69,-2.16,4,-13.77
19.731,0.27,5.1,-16.32
19.772,0.75,1.18,-16.75
19.813,-3.8,2.31,-13.38
19.854,-3.14,5.96,-12.47
19.895,-1.65,1.53,-10.83
19.936,-2.59,1.29,-11.34
19.977,-2.79,1.37,-12.04
20.018,-2.9,0.12,-12.28
20.059,-5.26,0.31,-10.75
20.101,-5.3,1.26,-11.77
20.142,-6.12,3.49,-14.2
20.183,-6.55,2.71,-16.51
20.224,-8.08,3.14,-14.55
20.265,-5.65,3.65,-14.79
20.306,-3.22,3.26,-15.38
20.347,-1.88,3.69,-16.36
20.388,-2.67,1.96,-15.38
20.429,-1.92,2.35,-14.91
20.47,-1.37,2.63,-13.89
20.511,0.75,1.73,-13.26
20.552,2,0.9,-11.89
20.593,1.8,0.51,-10.55
20.634,1.45,0.04,-9.34
20.675,1.65,0.47,-9.41
20.716,2.51,0.04,-9.53
20.757,2.67,-1.61,-10.24
20.798,3.77,0.35,-12.94
20.839,1.57,-1.14,-12.24
20.88,-1.96,1.02,-13.38
20.921,-0.82,3.96,-15.49
20.962,0.98,3.06,-16.75
21.003,-1.77,1.06,-13.85
21.044,-3.65,3.77,-12.24
21.085,-3.06,2.2,-10.79
21.126,-2.59,1.02,-10.47
21.167,-2.98,1.77,-10.79
21.208,-2.43,1.49,-11.69
21.249,-4,1.57,-10.51
21.29,-4.24,1.18,-10.4
21.331,-5.84,4,-12.87
21.372,-5.37,3.53,-17.18
21.414,-7.49,2.24,-16.55
21.455,-10.04,0.16,-14
21.496,-3.1,3.1,-17.3
21.537,-1.49,3.69,-17.42
21.578,-2.16,1.8,-16.4
21.619,-1.33,1.8,-15.93
21.66,-1.45,1.92,-14.79
21.701,0.75,1.57,-13.73
21.742,2.75,1.57,-12.04
21.783,3.92,0.59,-10.63
21.824,1.88,-0.67,-7.96
21.865,1.41,0.12,-8.08
21.906,1.88,-0.24,-8.08
21.947,3.92,-0.86,-9.53
21.988,5.41,-0.43,-11.34
22.029,5.45,-0.94,-15.14
22.07,-2.04,1.1,-17.06
22.111,-2.82,6.04,-19.57
22.152,-1.69,3.77,-19.02
22.193,-4.31,1.45,-15.06
22.234,-3.53,3.53,-12.71
22.275,-2.98,1.92,-10.9
22.316,-2.16,0.2,-10.16
22.357,-3.3,0.78,-9.73
22.398,-3.61,0.27,-10.08
22.439,-4.71,-0.27,-9.89
22.48,-6.08,1.14,-9.96
22.521,-5.22,2.82,-12.83
22.562,-5.18,2.28,-15.65
22.603,-4.86,1.02,-16.28
22.644,-8.79,2.39,-15.42
22.685,-3.45,1.92,-15.85
22.726,-3.49,1.65,-15.22
22.767,-0.75,4.12,-17.02
22.808,0.71,4.08,-15.97
22.849,-1.49,1.88,-13.73
22.89,-0.24,2.31,-13.22
22.931,0.04,0.82,-11.49
22.973,1.06,-0.2,-10.59
23.014,0.82,0.39,-9.41
23.055,1.45,0,-8.9
23.096,2.28,-0.98,-8.47
23.137,3.18,-0.63,-9.73
23.178,3.18,-0.2,-11.41
23.219,4.16,-1.57,-13.81
23.26,-1.37,-0.31,-14.51
23.301,-2.71,2.82,-16.44
23.342,-1.02,2.43,-17.57
23.383,-4.31,0.51,-14.04
23.424,-2.9,3.22,-12.79
23.465,-2.98,2.08,-11.1
23.506,-2.82,0.67,-11.14
23.547,-3.84,1.8,-11.22
23.588,-4.08,2.16,-11.65
23.629,-5.02,1.8,-10.83
23.67,-6.39,2.12,-10.36
23.711,-5.26,2.16,-12.16
23.752,-6.98,2.94,-14.71
23.794,-6,2.94,-16.79
23.835,-8.28,3.73,-15.1
23.876,-2.75,1.22,-16.99
23.917,-3.45,2.86,-17.18
23.958,-2.08,2.63,-18.59
23.999,-2.16,1.06,-16.99
24.04,-1.26,0.55,-16
24.081,-0.35,0.71,-14.71
24.122,1.57,-0.31,-13.81
24.163,1.22,-0.55,-11.96
24.205,0.55,0.08,-10.43
24.246,0.55,-0.24,-8.55
24.287,1.96,-1.02,-8
24.328,3.22,-1.33,-7.96
24.369,3.53,-0.51,-9.14
24.41,4.35,-1.57,-10.43
24.451,0.51,0.04,-11.65
24.492,-1.8,4.12,-14.71
24.533,0.2,3.96,-17.77
24.574,-0.16,2.43,-18.48
24.615,-4.67,3.69,-15.3
24.656,-5.65,3.73,-14.95
24.697,-4.82,1.69,-13.77
24.738,-4.86,1.22,-12.79
24.779,-3.06,1.02,-13.02
24.82,-4.9,1.06,-11.1
24.861,-4.98,0.98,-10.32
24.902,-5.65,2.86,-11.49
24.943,-6.24,3.73,-14.47
24.984,-6.63,3.8,-17.02
25.025,-10.63,5.3,-16.2
25.066,-4.75,1.88,-16.48
25.107,-2,2.71,-15.89
25.148,-1.84,4.31,-16.83
25.189,-1.1,1.84,-16.63
25.23,-2.51,1.69,-15.65
25.271,-1.37,2,-15.14
25.312,0.31,0.55,-14.16
25.353,2.04,-0.08,-12.75
25.394,1.26,0.2,-10.71
25.435,1.33,-0.43,-9.57
25.476,1.84,-2.24,-8.2
25.517,3.53,-0.86,-9.22
25.558,2.43,-1.65,-9.1
25.599,4.31,-1.22,-11.61
25.64,3.84,0,-12.59
25.681,-1.92,3.18,-13.96
25.722,-1.06,6.63,-17.57
25.763,-0.78,4.04,-18.32
25.804,-4.98,2.43,-14.24
25.845,-4.35,7.69,-13.53
25.886,-2.39,2.51,-11.89
25.927,-3.45,1.26,-10.87
25.968,-2.71,2.9,-11.89
26.009,-3.84,2.08,-11.69
26.05,-5.02,1.92,-11.14
26.091,-6.35,3.06,-11.18
26.132,-5.96,3.18,-12.32
26.173,-5.84,3.26,-13.96
26.214,-6.32,4.24,-15.34
26.255,-7.41,4,-14.71
26.296,-3.1,2.08,-17.34
26.337,-3.37,4.39,-17.77
26.378,-3.84,2.86,-17.38
26.419,-2.55,2.08,-17.18
26.46,-1.8,1.61,-15.38
26.501,1.26,0.55,-14.75
26.542,2.16,2.04,-13.42
26.583,1.65,0.59,-11.61
26.624,1.84,-0.94,-10.47
26.665,1.18,-1.73,-8.83
26.706,2.04,-1.1,-9.02
26.747,1.33,-1.02,-8.39
26.788,4,-1.1,-10.63
26.829,4.39,-0.59,-12.24
26.87,-0.12,0.08,-12.59
26.911,-1.14,2.79,-15.73
26.952,-1.84,6.28,-18.36
26.993,-3.45,2.35,-16
27.034,-4.63,3.45,-13.1
27.075,-2.82,4.98,-11.81
27.116,-2.39,1.96,-11.3
27.157,-2.71,0.27,-10.47
27.198,-2.28,2.71,-12.51
27.239,-3.84,1.57,-11.57
27.28,-5.02,2.12,-12.08
27.321,-6.28,3.53,-14.08
27.362,-7.65,3.96,-17.1
27.403,-8.16,3.3,-16.16
27.444,-8.39,2.08,-13.3
27.485,-3.06,2.47,-15.77
27.526,-2.63,4.16,-16.71
27.567,-2.59,2.47,-16.2
27.608,-2.04,1.84,-14.75
27.649,-2.04,1.65,-13.81
27.69,-0.47,1.61,-13.57
27.731,1.57,0.78,-13.65
27.772,1.77,0.27,-12.75
27.813,1.49,-1.1,-11.1
27.854,2.12,-0.94,-10.59
27.895,1.84,-1.8,-8.94
27.936,3.57,-1.26,-10
27.977,5.57,-1.1,-11.3
28.018,2.79,-1.8,-12.2
28.059,-2,4,-14.63
28.1,-0.71,6.39,-17.14
28.141,1.69,2.24,-16.59
28.182,-4.39,4.98,-12
28.223,-2.35,7.69,-11.57
28.264,0.71,0.27,-12
28.305,-2.75,1.45,-13.22
28.346,-4.67,2,-14.12
28.387,-4.9,-0.75,-13.81
28.428,-8.08,-0.75,-12.2
28.469,-6.94,-1.1,-11.61
28.51,-5.88,0.04,-13.53
28.551,-6.35,0.75,-15.89
28.592,-7.69,2.47,-15.93
28.633,-6.75,1.18,-15.61
28.674,-3.1,0.9,-18.01
28.715,-4.08,1.57,-18.51
28.756,-2.79,1.29,-17.34
28.797,-1.96,1.37,-16
28.838,-0.71,1.49,-15.1
28.879,1.29,2.04,-14.16
28.92,2.51,1.45,-12.43
28.961,3.26,0.71,-11.41
29.002,1.29,0,-8.98
29.043,2.59,-0.78,-8.63
29.084,3.1,-0.55,-8.79
29.125,2.71,-1.26,-8.67
29.166,4.55,-0.08,-12.36
29.207,4.35,-1.1,-13.69
29.248,-1.73,0.39,-14.95
29.289,-1.06,5.14,-18.12
29.33,-0.9,2.2,-18.67
29.371,-4.55,2.31,-15.65
29.412,-4.12,4.51,-14.71
29.453,-4.04,2.04,-12.4
29.494,-3.73,0.43,-11.06
29.535,-3.77,1.84,-11.34
29.576,-4.59,2.39,-10.2
29.617,-5.18,1.73,-10.12
29.658,-5.22,1.53,-11.14
29.699,-7.26,4.94,-13.34
29.74,-6.98,2.79,-16.28
29.781,-7.18,3.02,-18.12
29.822,-9.1,3.73,-16.95
29.863,-0.98,-0.24,-19.97
29.905,-1.88,2.35,-19.97
29.946,-1.88,1.02,-18.24
29.987,-0.71,0.67,-16.99
30.028,0.08,0.59,-15.26
30.069,1.06,0.59,-13.42
30.11,1.61,0.08,-11.61
30.151,1.37,-0.16,-9.92
30.192,1.14,-0.27,-8.75
30.233,2.51,-0.94,-9.1
30.274,4,-1.73,-8.75
30.315,4.12,-1.73,-9.26
30.356,6.12,-2.67,-11.49
30.398,1.41,-2.08,-12.75
30.439,-1.61,3.73,-16.48
30.48,-0.12,8.32,-19.97
30.521,-0.78,2.28,-19.46
30.562,-3.96,3.8,-18.12
30.603,-6.16,5.69,-15.77
30.644,-5.81,0.94,-13.26
30.685,-4.94,-0.12,-11.89
30.726,-3.57,0.82,-12.28
30.767,-4.08,0.31,-11.14
30.808,-4.79,-0.51,-9.45
30.849,-5.65,1.29,-10.28
30.89,-5.65,2.2,-12.47
30.931,-5.96,2.28,-16.91
30.972,-8.16,2.9,-17.18
31.013,-7.53,1.33,-16.87
31.054,-1.61,1.69,-18.28
31.095,-3.65,3.37,-17.42
31.136,-3.02,1.96,-17.73
31.177,-1.45,2,-17.02
31.218,0.75,0.98,-15.46
31.259,2.12,0.08,-13.85
31.3,2.75,-0.12,-12.71
31.341,1.77,-0.55,-10.98
31.382,1.65,-1.49,-9.69
31.423,1.06,-2.08,-8.71
31.464,2.2,-1.65,-9.34
31.505,2.63,-0.82,-10.36
31.546,4.71,-2.59,-10.9
31.588,1.77,-1.33,-11.77
31.629,0.16,3.49,-15.34
31.67,0.75,6.2,-18.28
31.711,-3.77,2.16,-15.57
31.753,-5.81,6.51,-13.14
31.794,-3.14,8.28,-13.42
31.835,-0.39,0.27,-12.87
31.876,-2.2,-0.39,-12.98
31.917,-3.1,1.18,-13.93
31.958,-5.45,2.47,-12.24
31.999,-5.65,-0.78,-11.34
32.04,-8.36,2.2,-11.57
32.081,-5.77,3.18,-15.97
32.122,-6.67,3.73,-17.89
32.163,-11.06,4.39,-15.77
32.204,-3.77,-0.63,-17.14
32.245,-3.45,2.98,-17.14
32.286,-1.65,1.84,-17.22
32.327,-1.92,0.55,-15.89
32.368,-0.94,2.08,-15.85
32.409,1.29,0.75,-14.98
32.45,2.67,-0.2,-14.24
32.491,1.29,-0.78,-12.04
32.532,1.29,-1.45,-10.28
32.573,0.31,-0.82,-9.77
32.614,2.43,-1.41,-10.2
32.655,2.55,-1.41,-10.32
32.696,3.73,-1.8,-11.1
32.737,2.82,-1.29,-11.3
32.778,-1.73,4.35,-11.65
32.819,3.41,6.55,-16.44
32.86,-0.08,1.96,-15.73
32.901,-2,2.24,-13.93
32.942,-2.71,6.51,-14.04
32.983,-2.79,2,-13.06
33.024,-3.33,-0.51,-14.24
33.065,-6.9,-0.47,-13.18
33.107,-5.73,-0.2,-12.36
33.148,-5.1,-0.71,-10.36
33.189,-5.69,0.08,-10.83
33.23,-6,1.88,-13.93
33.271,-7.06,1.69,-17.42
33.312,-9.3,3.37,-16.12
33.353,-3.33,-0.55,-16.28
33.394,-2.94,4.16,-16.83
33.435,-2.98,3.92,-16.99
33.476,-2.16,1.49,-15.73
33.517,-1.1,1.14,-14.67
33.558,0.16,2.79,-14.12
33.599,1.65,2.12,-13.02
33.64,1.53,0.04,-11.22
33.681,1.22,-0.24,-10.55
33.722,0.43,0.39,-10.32
33.763,1.84,-0.59,-10.63
33.804,2.75,-2.82,-10.08
33.845,2.63,-2.2,-10.16
33.886,4.35,-1.14,-11.65
33.927,-1.02,0.86,-10.08
33.968,0.35,3.84,-13.73
34.009,1.8,5.1,-17.26
34.05,0.08,0.86,-17.38
34.091,-3.73,1.33,-15.38
34.132,-5.02,6.83,-13.85
34.173,-3.02,3.02,-11.26
34.214,-0.67,0.35,-11.45
34.255,-2.35,1.33,-12.28
34.296,-2.82,-0.43,-12.67
34.337,-6.28,-0.04,-11.81
34.378,-9.1,0,-12.16
34.419,-9.41,0.98,-14.04
34.46,-8.71,1.37,-17.14
34.501,-6.16,1.84,-16.12
34.542,-3.96,1.41,-15.49
34.583,-0.86,1.65,-18.12
34.624,-1.77,2.94,-17.85
34.666,-1.37,0.94,-17.18
34.707,-1.88,1.49,-15.34
34.748,0.16,0.71,-14.32
34.789,1.45,0.59,-12.98
34.83,2.43,0.63,-12.51
34.871,2.51,-0.08,-11.81
34.912,1.77,-1.1,-10.67
34.953,1.37,-0.39,-10.47
34.994,3.26,-2.2,-10
35.035,3.18,-2.12,-10.2
35.076,4.43,-1.69,-10.79
35.117,-0.08,0,-9.34
35.158,1.84,3.41,-13.77
35.199,1.8,6.35,-16.67
35.24,1.37,2.08,-17.1
35.281,-2.67,2.35,-15.1
35.322,-4.59,6.94,-14.98
35.363,-4.51,2.55,-12.87
35.404,-3.92,0.47,-13.18
35.445,-4.04,1.92,-13.57
35.486,-4.63,2.47,-12.4
35.527,-5.41,1.26,-10.67
35.568,-4.59,3.57,-12.4
35.609,-5.22,5.49,-15.42
35.65,-6.55,5.41,-16.95
35.691,-7.65,4.9,-15.46
35.732,-1.73,2.82,-17.02
35.773,-0.35,3.49,-16.4
35.814,-1.61,3.14,-15.49
35.855,-0.47,1.77,-15.3
35.896,-1.02,2,-14.67
35.937,0.51,0.35,-13.81
35.978,1.41,-0.86,-12.79
36.019,0.94,-0.08,-11.85
36.06,1.22,-0.86,-11.02
36.101,0.71,-1.37,-9.85
36.142,3.14,-1.33,-10.59
36.183,1.88,-2,-9.89
36.224,3.69,-2.2,-11.38
36.265,3.53,-2.67,-11.57
36.306,-1.33,2.43,-11.45
36.348,1.22,7.45,-16.48
36.389,0.27,2.98,-15.18
36.43,-0.82,3.57,-12.28
36.471,0.51,14.2,-13.42
36.512,-1.26,3.14,-10.67
36.553,-1.49,0.43,-11.38
36.594,-3.73,6.24,-14.32
36.635,-3.22,0.16,-13.06
36.676,-6.32,0.39,-11.69
36.717,-9.53,1.73,-10.16
36.758,-6.67,2.24,-13.02
36.799,-6.55,1.22,-16.79
36.84,-8.36,2.24,-17.14
36.881,-8.08,2.39,-15.85
36.922,-2.16,2.98,-16.91
36.963,-2.51,5.65,-16.79
37.004,-2.47,4.79,-16.51
37.045,0,3.49,-15.57
37.086,1.29,3.26,-14.63
37.127,1.29,3.3,-13.57
37.168,3.49,1.45,-13.77
37.209,1.06,0.08,-11.3
37.25,0.31,0.59,-10.32
37.291,0.39,0.27,-9.34
37.332,1.77,-0.24,-8.94
37.373,2.31,-1.37,-8.39
37.414,4.55,-0.75,-10.4
37.455,3.77,-0.16,-10.9
37.497,0.67,1.77,-13.45
37.538,1.33,6.51,-17.81
37.579,-1.18,3.69,-17.81
37.62,-4.71,3.1,-14.67
37.661,-2.82,8.98,-14.2
37.702,-2.67,2.98,-12.24
37.743,-1.65,0.27,-11.73
37.785,-2.67,2.79,-12.63
37.826,-4.39,3.49,-11.34
37.867,-5.18,2.67,-10.67
37.908,-5.57,3.18,-11.77
37.949,-6.43,6.16,-14.67
37.99,-8.32,6.67,-18.24
38.031,-7.81,5.69,-15.93
38.072,-2.28,2.86,-16.59
38.113,-0.04,3.77,-17.18
38.154,-2.24,3.88,-16.71
38.195,-0.67,2.94,-17.22
38.236,-1.96,1.69,-15.81
38.277,0.47,1.29,-15.3
38.318,1.26,-0.08,-13.65
38.359,1.29,0.08,-12.28
38.4,1.84,-0.75,-11.14
38.441,0.94,-0.78,-9.57
38.482,1.57,-0.47,-8.9
38.523,3.37,-1.49,-9.18
38.564,3.88,-1.22,-10.12
38.605,5.65,-2.39,-11.34
38.646,0,-0.59,-10.24
38.687,1.69,4.24,-15.3
38.728,2.04,5.92,-18.71
38.77,0.43,1.69,-18.4
38.811,-1.96,5.77,-18.08
38.852,-5.41,6.71,-15.69
38.893,-5.02,1.73,-13.61
38.934,-4.28,0.47,-13.3
38.975,-3.73,2.39,-13.02
39.016,-3.88,0.9,-11.3
39.057,-5.3,0.24,-10.04
39.098,-5.77,4.04,-12.59
39.14,-5.14,5.14,-16.99
39.181,-8.12,2.86,-16.67
39.222,-8.04,1.1,-15.02
39.263,-3.33,2.9,-16.67
39.304,-1.06,2.79,-17.65
39.345,-2.59,3.33,-17.14
39.386,-0.27,1.92,-17.14
39.427,0.12,1.69,-15.49
39.468,1.92,-0.16,-14
39.509,2.16,-0.12,-12.36
39.55,1.88,0.71,-12.32
39.591,1.96,0,-11.1
39.632,0.2,-1.26,-9.69
39.673,2.28,-1.41,-10.2
39.714,2.24,-1.88,-10
39.755,4.12,-1.8,-11.92
39.796,4.98,-4.94,-11.49
39.837,-1.61,-1.88,-11.3
39.878,2.39,7.96,-15.73
39.919,3.88,2.51,-16.12
39.96,0.27,-0.9,-14.79
40.002,-1.92,6.2,-15.73
40.043,-3.14,10.16,-16.51
40.084,-4,0.75,-14.4
40.125,-6.32,1.84,-14.71
40.166,-6.16,1.53,-12.32
40.207,-4.08,0.47,-10.47
40.248,-4.55,0,-9.57
40.289,-4.12,2.63,-12.59
40.33,-4.86,3.84,-16.28
40.372,-5.84,2.47,-15.57
40.413,-7.92,0.35,-15.06
40.454,-1.33,3.65,-18.79
40.495,-2.28,3.18,-17.97
40.536,-2.79,-0.04,-16.51
40.577,-1.14,1.18,-16.12
40.618,-0.12,2.28,-15.42
40.659,0.94,0.35,-13.69
40.7,3.69,-0.86,-12.63
40.741,1.26,-0.31,-10.63
40.782,2.31,-0.12,-11.3
40.823,1.22,-0.63,-10.63
40.864,2.47,-2.47,-10.43
40.905,2.55,-2.39,-10.51
40.946,4.28,-2.24,-11.18
40.987,-0.82,-0.63,-9.1
41.028,0.16,3.73,-12.24
41.069,2.67,5.88,-14.79
41.11,3.49,2.08,-16.12
41.151,-0.27,-0.35,-14.98
41.192,-2.82,6.71,-16.2
41.233,-5.18,4.39,-13.34
41.274,-3.69,0.31,-13.69
41.315,-5.26,0.75,-12.87
41.356,-4.63,2.86,-12
41.397,-4.43,1.57,-10.16
41.438,-4.98,2.47,-10.59
41.479,-4.47,4.59,-14.75
41.52,-5.92,5.3,-17.81
41.561,-7.1,3.18,-15.06
41.602,-2.35,2.04,-16.48
41.643,-1.77,3.49,-16.91
41.684,-2.16,3.61,-17.02
41.725,-0.86,1.96,-16.2
41.766,-0.08,1.18,-14.83
41.807,1.33,1.57,-13.73
41.848,2.16,0.27,-12.43
41.889,1.26,-0.12,-11.06
41.93,2.08,-0.43,-10.36
41.971,1.22,-0.98,-9.3
42.012,2.43,-1.33,-9.73
42.053,2.98,-2.35,-10.47
42.094,4.9,-2.67,-11.77
42.135,0.24,-2,-10.2
42.176,-2.04,4.86,-13.06
42.217,2,5.88,-16.71
42.258,0.94,2.24,-16.36
42.299,-1.73,1.53,-13.3
42.34,-2.04,6.98,-13.02
42.381,-1.77,2.35,-11.89
42.422,-2.2,1.26,-12.16
42.463,-2.71,1.84,-12.67
42.504,-3.53,1.61,-12.47
42.545,-6.08,1.84,-10.98
42.586,-6.12,2.71,-11.77
42.627,-5.73,3.92,-15.34
42.668,-4.39,2.71,-17.77
42.709,-7.88,1.73,-14.51
42.75,-4.31,1.1,-15.22
42.791,-3.33,2,-14.79
42.832,-1.92,3.1,-16.32
42.873,-4.04,2.31,-15.81
42.914,-0.82,0.63,-16.04
42.955,-1.29,1.41,-14.63
42.996,1.37,0.47,-13.96
43.037,1.88,-0.2,-12.59
43.078,1.96,-0.04,-11.38
43.119,1.37,-0.43,-10.36
43.16,2.82,-1.65,-10.71
43.201,3.14,-2.16,-10.04
43.242,4.35,-2.28,-10.79
43.283,3.45,-2.67,-11.02
43.324,-1.18,2.16,-11.1
43.365,1.69,3.77,-15.18
43.406,2.51,3.06,-17.3
43.447,-1.1,0.43,-14
43.488,-2.39,4.94,-13.89
43.529,-3.06,3.88,-12.55
43.57,-2.39,-0.59,-12.71
43.611,-3.65,2.59,-14.12
43.652,-4.59,1.41,-13.61
43.693,-5.65,1.45,-13.02
43.734,-6.94,3.3,-12.43
43.775,-5.26,4.16,-14.55
43.816,-5.02,4.39,-16.63
43.857,-6.28,3.88,-15.53
43.898,-4.31,3.02,-15.14
43.939,-0.04,3.57,-16.2
43.98,-0.24,2.63,-16.08
44.021,-2.28,3.45,-16.08
44.062,-5.84,0.82,-15.18
44.103,-1.41,0.12,-15.38
44.144,0.67,-0.31,-13.69
44.185,2.75,0.47,-13.85
44.226,1.29,-0.75,-12.24
44.267,1.29,-1.92,-10.87
44.308,2.35,-2.12,-10.83
44.349,2.51,-1.69,-10.43
44.39,3.1,-2.24,-11.06
44.431,2.75,-2.2,-10.04
44.472,0.2,1.06,-9.96
44.513,1.61,3.22,-13.14
44.554,2.16,4.43,-15.53
44.595,0.35,1.53,-12.59
44.636,-0.71,4.82,-12.79
44.677,-1.96,5.3,-12.4
44.718,-0.98,2.79,-13.57
44.759,-1.73,0.82,-15.02
44.801,-4.31,2.04,-15.97
44.842,-6.86,2.39,-13.85
44.883,-7.69,1.41,-12.04
44.924,-4.63,3.18,-14.04
44.965,-6.24,3.57,-15.65
45.006,-5.57,4.39,-15.69
45.047,-6.98,3.88,-14.24
45.088,-2.04,2.24,-16.51
45.129,-3.3,3.73,-17.02
45.17,-2.79,1.57,-16.83
45.211,-2.82,0.82,-15.65
45.252,-1.45,0.78,-15.65
45.293,0.47,0.43,-14.75
45.334,1.69,-0.12,-14.2
45.375,1.49,-1.14,-12.55
45.416,1.37,-1.69,-11.38
45.457,1.33,-1.33,-11.18
45.498,3.02,-2.24,-11.26
45.539,3.37,-3.18,-10.67
45.58,3.96,-2.31,-10.55
45.621,-0.12,-0.9,-8.24
45.662,2,4.24,-12.36
45.703,4.28,3.57,-14.51
45.744,2.28,-0.63,-15.42
45.785,-1.18,0.98,-15.46
45.826,-3.37,5.45,-17.42
45.868,-3.06,6.08,-15.34
45.909,-3.92,-0.16,-14.87
45.95,-6.28,0.75,-14.4
45.992,-5.77,1.33,-13.49
46.033,-5.61,0.51,-11.34
46.074,-5.65,-0.12,-11.18
46.115,-6.24,2.04,-13.65
46.156,-6.71,1.69,-16.44
46.197,-8.83,2,-14.55
46.238,-5.14,1.8,-16
46.279,-2.71,1.77,-17.57
46.32,-2.55,2.47,-18.4
46.361,-1.61,0.67,-18.36
46.402,-1.33,1.06,-16.75
46.443,-0.39,1.41,-15.46
46.484,0.9,0.71,-13.69
46.525,2.98,-0.2,-12.94
46.566,1.96,-0.27,-11.18
46.607,2.55,0,-11.69
46.648,2.9,-2.67,-11.1
46.689,2.51,-3.14,-10
46.73,3.61,-1.65,-10.24
46.771,2,-0.59,-9.38
46.812,0.2,1.53,-10.4
46.853,3.53,4.86,-14.12
46.894,4.71,2.24,-17.77
46.935,0.08,0,-16.12
46.976,-1.49,4.16,-15.89
47.017,-3.41,6.47,-15.22
47.058,-2.59,-0.51,-14.79
47.099,-5.3,-0.63,-15.02
47.141,-5.92,0.59,-13.93
47.182,-4.43,0.47,-12.71
47.223,-5.14,0.04,-11.26
47.265,-5.33,1.29,-13.49
47.306,-6.86,2.98,-16.16
47.347,-9.14,2.98,-16.04
47.388,-8.87,1.77,-13.53
47.429,0.04,1.61,-17.1
47.47,-1.77,4.79,-16.99
47.511,-1.57,2.39,-17.38
47.552,-2,2.51,-16.95
47.593,-1.45,2.47,-16.87
47.634,1.22,0.47,-15.3
47.675,2.47,-0.94,-13.49
47.716,2.98,-0.24,-12.32
47.757,2,-0.35,-10.28
47.798,1.92,-0.55,-10.08
47.839,3.02,-2.31,-9.65
47.88,2.94,-2.94,-10.2
47.921,3.1,-3.33,-11.18
47.963,2.04,-3.18,-10.63
48.004,-1.37,0.75,-12.16
48.045,3.8,4.43,-18.2
48.086,0.08,1.14,-15.97
48.127,1.1,0.16,-16.55
48.168,-2.82,5.26,-15.3
48.209,-4.08,7.49,-14.91
48.25,-1.73,-2,-13.49
48.291,-4.63,-0.08,-14.28
48.332,-6.75,2,-12.83
48.373,-5.57,-0.67,-11.18
48.414,-6.28,0.51,-10.28
48.455,-5.37,2.39,-13.34
48.496,-5.61,3.06,-17.57
48.537,-7.92,3.3,-16.55
48.578,-3.73,-0.2,-16.75
48.619,-1.22,2.24,-17.65
48.661,-1.61,3.45,-17.73
48.702,-1.84,1.92,-17.42
48.743,-1.26,0.55,-16.59
48.784,0.27,0,-15.53
48.825,1.84,-0.24,-13.81
48.867,2.94,-0.39,-13.1
48.908,2.35,-0.55,-11.65
48.949,1.26,-1.14,-10.08
48.99,1.8,-1.65,-9.65
49.031,2.63,-1.96,-9.38
49.072,3.37,-1.96,-10.47
49.113,6.24,-2.86,-11.85
49.154,-0.78,-1.02,-11.1
49.195,1.14,6.43,-15.26
49.236,5.73,3.92,-18.4
49.277,0.94,-1.77,-16.2
49.318,-1.14,2.08,-16.12
49.359,-4.24,7.88,-16.83
49.4,-5.49,1.33,-14
49.441,-4.24,-1.96,-14.12
49.483,-6.32,2.67,-13.14
49.524,-5.33,1.33,-11.14
49.565,-4.43,0,-10.2
49.606,-4.79,1.84,-12.36
49.647,-5.41,3.84,-15.69
49.688,-6.39,2.2,-16.51
49.729,-8.04,2.12,-14.71
49.77,-2,1.73,-17.69
49.811,-0.71,1.92,-18.48
49.852,-3.41,2.9,-17.97
49.893,-1.84,0.94,-18.32
49.934,-3.1,2.04,-16.51
49.975,3.26,0.82,-16.55
50.016,4.28,1.26,-13.85
50.057,2.47,-0.31,-11.53
50.098,3.33,-0.39,-11.18
50.139,0.98,-1.37,-8.75
50.18,3.26,-2,-8.63
50.221,3.8,-3.18,-8.04
50.262,4.59,-1.14,-9.45
50.303,4.98,-1.37,-11.57
50.344,1.26,0.51,-13.53
50.385,1.57,2.31,-17.73
50.426,1.06,0.9,-20.01
50.467,-4.39,2.82,-18.36
50.508,-3.1,5.02,-16.2
50.549,-3.22,0.55,-13.81
50.59,-3.06,-0.59,-12.59
50.631,-2.82,0.31,-12.2
50.672,-3.37,0.35,-11.18
50.713,-4,-0.43,-10
50.754,-5.45,0,-10.67
50.795,-5.65,1.22,-12.79
50.836,-7.14,1.18,-15.61
50.877,-6.59,-0.31,-16.51
50.918,-9.14,3.73,-14.83
50.96,-4.04,1.69,-16.71
51.001,-2,2.51,-18.32
51.042,-2.28,4.51,-19.02
51.083,-0.51,1.61,-18.63
51.124,-3.14,3.65,-18.91
51.165,0.67,0.16,-19.06
51.206,5.53,-0.39,-14.79
51.247,2.55,0.08,-8.98
51.288,2.67,1.57,-8.47
51.329,2.55,0.12,-7.37
51.37,4.08,-1.41,-7.37
51.411,3.96,-2.51,-7.57
51.452,5.06,-1.41,-11.02
51.493,6.16,-1.77,-15.49
51.534,-2.55,0.04,-18.59
51.575,-1.65,4.51,-19.97
51.616,1.14,2.2,-19.89
51.657,-1.73,0.08,-17.06
51.698,-2.71,-0.12,-15.85
51.739,-5.69,0.27,-13.53
51.78,-4.63,-0.82,-12.12
51.821,-3.77,-0.67,-11.53
51.862,-4.24,-0.75,-10.59
51.903,-4.35,-1.88,-9.49
51.944,-4.67,-0.94,-10.63
51.985,-5.53,1.73,-13.26
52.026,-6.43,1.14,-18.08
52.067,-9.1,1.29,-17.18
52.108,-7.61,0.24,-16.4
52.149,1.22,2.67,-19.61
52.19,-1.8,5.41,-18.04
52.232,-2.39,2.86,-17.18
52.273,-2.16,0.9,-17.77
52.314,-1.29,1.92,-15.89
52.355,5.81,0.16,-14.55
52.396,3.37,-0.63,-10.4
52.437,3.26,-1.1,-9.06
52.478,3.18,-0.78,-8.59
52.519,1.8,-0.16,-8.87
52.56,2.16,-2.43,-9.06
52.601,3.06,-3.37,-11.53
52.642,4.2,-3.41,-13.3
52.683,-0.63,-1.49,-13.57
52.724,-1.57,5.49,-17.1
52.765,1.49,3.69,-19.53
52.806,-0.08,-2.63,-18.12
52.847,-3.22,-0.35,-15.22
52.888,-3.37,6.63,-14.71
52.929,-2.86,0.35,-11.92
52.97,-2.31,-1.14,-11.53
53.011,-3.45,0.82,-11.34
53.052,-3.61,0.04,-10.79
53.093,-5.14,0.24,-9.73
53.134,-5.96,1.53,-11.1
53.175,-6.2,3.3,-13.85
53.216,-6.32,2.75,-17.85
53.257,-8.24,3.18,-15.18
53.298,-5.92,1.84,-16.04
53.339,0.04,1.8,-19.14
53.38,-2.08,4.55,-19.53
53.421,-2.51,2.82,-18.83
53.462,-1.65,1.06,-17.89
53.503,-0.24,1.61,-15.49
53.544,4.24,-0.75,-14.83
53.585,2.79,-1.65,-10.4
53.627,2.79,-0.86,-9.73
53.668,3.45,1.14,-9.34
53.709,1.8,-1.26,-8.32
53.75,3.22,-3.49,-8.67
53.791,2.43,-2.94,-9.1
53.832,4.55,-2.75,-12.12
53.873,4.08,-2.28,-14.75
53.914,-0.82,2.75,-16.91
53.955,0.51,4.24,-19.89
53.996,0.51,1.22,-19.14
54.037,-1.77,1.29,-15.65
54.078,-4.43,2.9,-15.97
54.119,-6.08,1.26,-13.34
54.16,-2.98,-1.45,-12.91
54.201,-3.49,-0.2,-12.32
54.242,-4.24,-0.47,-10.75
54.283,-5.81,-0.63,-9.89
54.324,-5.96,1.29,-12.08
54.365,-6.08,2.16,-15.81
54.406,-7.34,1.61,-16.75
54.447,-9.38,3.8,-15.73
54.488,-2.79,2.2,-17.3
54.529,-0.86,3.88,-18.67
54.57,-2.51,4.04,-18.4
54.611,-1.41,2.12,-18.51
54.652,-2.04,2.39,-19.02
54.693,2.71,1.22,-15.49
54.734,6.71,0.75,-14.08
54.775,2.82,-1.84,-9.45
54.816,4.31,-0.31,-9.96
54.857,2.31,-0.71,-9.3
54.898,1.92,-1.88,-8.9
54.939,3.14,-4.35,-9.06
54.98,5.45,-2.94,-12.32
55.021,2.55,-0.86,-14.36
55.062,-0.86,3.49,-15.81
55.103,1.96,3.77,-19.77
55.144,0.9,-1.49,-19.14
55.185,-2.82,-0.2,-16.24
55.226,-3.57,4.43,-15.89
55.267,-5.14,1.26,-12.63
55.308,-2.59,-1.49,-12.4
55.349,-3.92,0.39,-12.28
55.39,-3.88,-0.04,-11.1
55.431,-4.82,-1.37,-9.85
55.472,-5.57,-0.43,-10.24
55.513,-6.12,3.37,-14.08
55.554,-6.71,2.86,-17.46
55.595,-8.47,1.14,-16.28
55.636,-3.73,3.18,-17.14
55.677,-0.63,4.12,-19.65
55.718,-1.77,2.94,-19.14
55.759,0.78,1.22,-18.67
55.8,1.02,0.12,-15.81
55.841,1.26,0.31,-13.81
55.882,2.39,0.78,-12.28
55.923,3.61,0.43,-10.08
55.964,3.22,-0.71,-8.39
56.005,3.53,-0.94,-8.08
56.046,2.63,-1.1,-7.88
56.087,3.73,-3.18,-9.02
56.128,3.26,-3.8,-10.32
56.169,4.04,-2.63,-13.81
56.21,0.16,-1.26,-16.48
56.251,-2.43,4.24,-18.59
56.292,-1.61,5.65,-20.01
56.333,-1.69,1.26,-18.87
56.374,-2.9,-1.49,-14.91
56.415,-3.49,5.18,-13.02
56.456,-2.16,3.3,-10.04
56.497,-1.14,0.78,-8.71
56.538,-1.06,0,-8.9
56.579,-2.04,-0.75,-10
56.62,-3.26,-0.71,-10.08
56.661,-5.65,0,-10.43
56.702,-5.14,2.55,-13.85
56.743,-6.08,4.16,-17.69
56.784,-5.26,1.65,-16.79
56.825,-2.67,2.59,-16.32
56.866,-1.14,4,-16.55
56.907,-0.9,2.82,-15.57
56.948,0.12,2.31,-15.14
56.989,0.67,1.29,-13.93
57.03,0.39,0.27,-11.77
57.071,1.37,-0.27,-11.49
57.112,1.61,-0.31,-10.63
57.153,1.26,-0.47,-10.63
57.194,1.41,-1.22,-10.4
57.235,1.57,-1.06,-10.98
57.276,2,-2.08,-11.22
57.317,2.24,-3.22,-11.77
57.358,3.22,-4.51,-12.4
57.399,0.31,-2.24,-11.53
57.44,-1.49,5.18,-14.12
57.481,2.47,5.49,-16.28
57.522,2.43,0.86,-14.71
57.563,1.1,0.71,-12.28
57.604,0.35,6.59,-12.63
57.645,-2.04,2.63,-10.51
57.686,-1.18,-1.18,-11.06
57.727,-3.84,2.67,-12.08
57.768,-3.92,1.92,-12.12
57.809,-4,-0.35,-11.26
57.85,-6.55,1.02,-11.14
57.891,-4.51,3.37,-15.65
57.932,-5.1,1.57,-17.02
57.973,-5.73,3.33,-16.08
58.014,-4.08,3.06,-16.2
58.055,-1.18,1.61,-16.75
58.096,-0.78,2.39,-17.22
58.137,-0.16,1.65,-15.85
58.178,-0.59,0.2,-14.47
58.219,0.08,0.16,-13.14
58.26,1.26,0.16,-12.4
58.301,2.35,-0.71,-11.77
58.342,2.35,-1.29,-10.51
58.383,1.77,-0.86,-10.16
58.424,2.35,-1.49,-10.32
58.465,2.59,-2.51,-10.71
58.506,3.22,-2.98,-12.28
58.547,4.04,-4.79,-12.98
58.588,-0.82,-2.04,-12.43
58.629,0.31,7.02,-15.97
58.67,2.9,6.32,-16.51
58.711,2.2,-3.18,-13.73
58.752,0.27,4.16,-14.36
58.793,-2.16,7.88,-14.24
58.834,-3.06,1.65,-12.47
58.875,-3.88,-0.31,-11.96
58.916,-5.1,2.39,-11.81
58.957,-2.47,1.1,-12.32
58.998,-4.67,-0.04,-9.81
59.039,-3.73,1.26,-12.08
59.08,-4.82,3.65,-14.95
59.121,-4.9,2.82,-17.06
59.162,-6.86,3.18,-15.1
59.203,-2.79,2.82,-16.36
59.244,-0.75,3.14,-18.01
59.286,-0.39,1.41,-17.69
59.327,0.31,-0.27,-15.85
59.368,-0.31,0.94,-13.93
59.409,0.9,0.63,-12.87
59.45,1.73,0.27,-11.89
59.491,3.14,-0.2,-12.04
59.532,2.43,-0.59,-11.02
59.573,2.82,-1.45,-11.06
59.614,3.3,-2.67,-10.87
59.655,3.22,-3.8,-11.89
59.696,5.02,-4.59,-12.94
59.737,-0.24,-4.94,-11.22
59.778,-1.45,1.69,-14.55
59.819,4.28,8.94,-17.5
59.86,0.94,-0.39,-14.75
59.901,0.82,-5.14,-12.36
59.942,-0.71,5.81,-14.98
59.983,-2.94,8.98,-13.53
60.024,-2.79,1.26,-12.16
60.065,-4.82,-0.59,-11.89
60.107,-5.18,2.94,-12
60.148,-4.75,0.63,-10.28
60.189,-4.98,1.77,-11.41
60.23,-3.8,3.96,-14.87
60.271,-4.35,2.79,-17.14
60.312,-5.22,1.69,-14.71
60.353,-2.59,3.3,-15.53
60.394,-1.22,3.1,-16.95
60.435,-0.24,1.84,-17.81
60.476,0.08,-0.86,-16.4
60.517,-0.98,-0.04,-14.16
60.558,-0.78,0.59,-13.1
60.599,0,-0.08,-12.16
60.64,1.33,-0.9,-10.98
60.681,2.04,-0.78,-10.87
60.722,2.16,-0.71,-10.4
60.763,3.14,-1.96,-10.32
60.804,4.35,-2.98,-10.04
60.845,4.35,-3.61,-10.71
60.886,2.31,-3.1,-12.04
60.927,-1.61,2.43,-12.75
60.968,1.57,5.65,-17.22
61.009,2,2.2,-18.16
61.05,-0.86,-0.04,-16
61.091,-1.8,3.22,-14.95
61.132,-4.47,7.14,-12.98
61.173,-2.47,2.35,-10.47
61.214,-1.33,-0.98,-10.32
61.255,-4.12,3.18,-10.63
61.296,-3.26,2.28,-10.75
61.337,-5.02,2.16,-10.28
61.378,-4.94,2.47,-12.28
61.419,-3.57,3.3,-16.75
61.46,-3.45,1.92,-17.14
61.501,-4.98,3.06,-15.53
61.542,-2.04,2.24,-17.53
61.583,-0.31,1.8,-17.97
61.625,-0.39,0.59,-16.59
61.666,0.98,-0.2,-14.32
61.707,-0.04,0.24,-12.24
61.748,1.41,0.16,-11.22
61.789,2.47,-0.31,-10.32
61.83,2.63,0.12,-9.34
61.872,2.71,-1.18,-8.43
61.913,2.35,-1.69,-7.41
61.954,1.06,-1.37,-13.06
61.995,-11.14,-2.12,-16.2
62.036,-13.26,-6.67,-13.96
62.077,-5.57,0.63,-16.95
62.118,-16.59,2.43,-10.83
62.159,-14.51,-2.59,-11.65
62.2,-8.75,-1.8,-11.18
62.241,-7.22,-0.75,-7.69
62.282,-3.65,-0.47,-6.98
62.323,-4.59,3.77,-5.84
62.364,-4.35,0.82,-5.26
62.405,-3.57,0.63,-4.71
62.446,-7.3,0.12,-4.51
62.487,-4.04,-2.2,-5.22
62.528,-8.59,-4.08,-2.79
62.569,-8.83,-5.26,-2.82
62.61,-8.75,-5.18,-2.24
62.651,-9.61,-4.16,-3.3
62.693,-8.43,-11.73,-2.71
62.734,-5.45,-9.38,0.04
62.775,-4.98,-5.57,-2.08
62.816,-6.86,-7.18,-1.45
62.857,-7.22,-5.37,-3.02
62.898,-6.47,-8.43,-2.71
62.939,-5.57,-4.2,-1.8
62.98,-4.51,-1.84,-2
63.021,-6.2,-1.84,-2.2
63.062,-9.3,-1.84,-3.26
63.103,-8.04,-5.96,-1.49
63.144,-11.89,-2.79,-3.45
63.185,-10.98,-1.1,-3.96
63.226,-9.85,-6.08,-4.12
63.267,-11.22,-3.53,-7.77
63.308,-13.81,-5.53,-6.55
63.349,-8.79,-1.49,-7.61
63.39,-8.12,-1.18,-6.83
63.431,-8.63,-2.9,-6.55
63.472,-8.04,-4.67,-5.33
63.513,-8.79,-2.82,-4.82
63.554,-7.26,2.39,-3.57
63.595,-7.37,-4.43,-2
63.636,-7.18,-0.47,-4.71
63.677,-7.88,-0.24,-5.3
63.718,-8.08,-2.47,-4.67
63.759,-7.57,-3.06,-4.28
63.8,-8.32,-4.31,-3.92
63.841,-7.02,-7.73,-4.35
63.882,-6.63,-6.79,-8.32
63.923,-10.4,-10.24,-5.61
63.964,-4.75,-11.38,-5.49
64.005,-5.37,-5.69,-4.86
64.046,-7.73,-6.79,-4.43
64.087,-4.39,-9.49,-4.98
64.128,-4.35,-7.61,-6.39
64.169,-5.84,-7.88,-4.08
64.21,-2.98,-8.79,-3.96
64.251,-5.81,-5.69,-4.9
64.292,-7.49,-6.28,-4.98
64.333,-4.51,-8.98,-4.86
64.374,-7.53,-6,-4.16
64.415,-4.79,-7.88,-3.3
64.456,-6.35,-6.43,-4.94
64.497,-7.53,-8.79,-4.94
64.538,-5.61,-8.12,-4.94
64.579,-7.88,-4.51,-6.28
64.62,-7.81,-4.39,-5.84
64.661,-3.96,-4.9,-6.32
64.702,-8.36,-7.02,-5.02
64.743,-4.47,-5.49,-7.14
64.784,-9.53,-2.04,-5.73
64.825,-8.87,-4.12,-4.86
64.866,-6.12,-4.9,-6.47
64.907,-9.06,-3.8,-5.37
64.948,-8.9,-5.41,-6.86
64.989,-7.69,-3.45,-6.55
65.03,-7.41,-4.71,-5.3
65.071,-6.55,-4.28,-5.53
65.112,-9.06,-6.51,-5.49
65.153,-6.98,-4.82,-5.65
65.194,-8.12,-1.69,-7.77
65.235,-8.04,-8.87,-4.94
65.276,-8.43,-0.39,-5.53
65.317,-8.63,-2.75,-5.1
65.358,-7.57,-7.06,-4.47
65.399,-8.47,-4.63,-4.9
65.44,-8.43,-5.33,-4.55
65.481,-8.39,-3.77,-5.06
65.522,-8.32,-5.33,-4.79
65.563,-7.73,-5.18,-4.86
65.604,-8.36,-4.82,-4.71
65.645,-7.45,-5.3,-4.51
65.686,-8,-4.86,-4.31
65.727,-8.43,-4.55,-4.63
65.768,-8.2,-5.84,-4.12
65.809,-7.45,-4.16,-4.75
65.85,-7.61,-5.41,-3.57
65.891,-8.04,-4.59,-3.06
65.932,-7.92,-1.61,-4.82
65.973,-8.9,-6.2,-3.84
66.014,-8.24,-4.82,-4
66.055,-6.9,-3.1,-5.1
66.096,-9.92,-4.94,-3.1
66.137,-7.49,-1.33,-5.41
66.178,-8.28,-5.22,-4.98
66.219,-10.4,-3.41,-3.1
