NAME:,walk_1_2.csv,,
EXPERIMENT TIME:,25/05/2022 15:39,,
ACTIVITY TYPE:,Walking,,
COUNT OF ACTUAL STEPS,70,,
,,,
Time [sec],ACC X,ACC Y,ACC Z
1.39,-8.2,5.88,0.08
1.43,-7.96,5.77,0.35
1.47,-8.04,5.92,0.47
1.52,-7.96,5.69,0.47
1.56,-8.12,5.92,0.47
1.6,-7.81,5.69,0.59
1.64,-8.32,5.69,0.51
1.68,-8,5.53,0.59
1.72,-8,5.73,0.63
1.77,-7.92,5.84,0.43
1.81,-8,6.04,0.51
1.85,-7.96,6.2,0.51
1.89,-7.88,6.28,0.43
1.93,-7.81,6.51,0.12
1.98,-6.98,6.43,0.08
2.02,-7.3,6.94,0.51
2.06,-7.26,6.35,0.67
2.1,-7.37,5.84,1.06
2.14,-7.37,6.32,1.14
2.18,-7.22,6.35,0.9
2.23,-7.06,6.79,0.78
2.27,-6.71,6.67,0.39
2.31,-6.35,6.79,0.51
2.35,-6.51,6.86,0.47
2.39,-6.47,6.59,0.67
2.43,-6.47,6.59,0.82
2.48,-6.32,6.32,1.1
2.52,-7.22,6.63,1.61
2.56,-8.04,6.86,1.18
2.6,-8.2,8.51,0.63
2.64,-5.77,8.32,0.71
2.68,-7.69,7.26,-0.59
2.73,-8.08,8.32,-2.28
2.77,-7.92,7.57,-2.55
2.81,-6.28,6.39,-2.86
2.85,-7.85,5.96,-2.59
2.89,-8.9,4.9,-2.86
2.94,-8.75,5.65,-2.04
2.98,-8.12,4.9,-2
3.02,-8.55,4.31,-1.84
3.06,-7.81,4.2,-2.67
3.1,-8.79,4.67,-2.04
3.15,-8.94,4.67,-1.88
3.19,-8.98,4.63,-1.77
3.23,-8.94,4.71,-1.33
3.27,-8.83,4.79,-1.26
3.31,-8,3.96,-1.14
3.36,-8.87,4.24,-0.9
3.4,-8.39,5.49,-0.43
3.44,-8.71,4.55,-0.86
3.48,-9.53,4.43,-0.71
3.52,-10.43,3.88,-0.9
3.57,-11.77,7.73,-2.59
3.61,-8.51,7.88,-2.08
3.65,-7.26,5.02,-2.43
3.69,-10.43,7.26,-1.29
3.73,-10,4.71,-1.37
3.78,-7.81,4.31,-0.59
3.82,-7.41,5.84,-0.55
3.86,-6.67,6.32,-0.47
3.9,-6.47,5.81,0.16
3.94,-7.22,6.08,-0.67
3.99,-7.18,5.22,-0.35
4.03,-7.53,5.3,0.47
4.07,-6.63,5.53,0.71
4.11,-6.51,5.61,1.41
4.15,-8.24,5.92,1.26
4.2,-7.88,6.2,1.14
4.24,-7.57,5.88,1.41
4.28,-7.73,8.39,1.57
4.32,-9.26,8.94,-1.92
4.36,-5.37,8.39,-0.67
4.41,-6.94,7.37,-5.3
4.45,-6.75,6.12,-4.28
4.49,-5.77,7.61,-3.65
4.53,-5.96,7.1,-3.65
4.57,-7.1,5.41,-2.98
4.61,-7.65,4.12,-1.18
4.66,-8.55,4.9,-1.77
4.7,-8.16,5.14,-1.29
4.74,-7.69,5.33,-1.49
4.78,-8.24,5.18,-0.78
4.82,-8.55,5.02,-0.82
4.87,-8.63,4.98,-0.94
4.91,-9.49,4.82,-0.78
4.95,-10.12,4.55,-0.31
4.99,-11.89,6.51,-1.65
5.03,-10.67,8.9,-2.59
5.08,-7.1,6.67,-2.63
5.12,-10.2,9.61,-0.78
5.16,-9.61,6,-1.02
5.2,-6.98,4,-0.67
5.24,-5.92,6.24,-0.51
5.29,-5.3,6.63,-0.86
5.33,-6.75,6.55,0.35
5.37,-6.59,5.73,0.24
5.41,-6.28,5.22,1.22
5.45,-7.37,5.22,1.96
5.5,-8.9,6,3.14
5.54,-8.63,6.86,1.18
5.58,-6.9,7.96,1.26
5.62,-11.06,11.14,-1.88
5.66,-5.33,9.14,-1.84
5.71,-7.85,7.77,-5.49
5.75,-6.35,5.14,-5.1
5.79,-6.67,5.65,-3.06
5.83,-6.9,6.32,-2.43
5.87,-7.3,4.55,-2.59
5.92,-7.88,4.67,-1.69
5.96,-8.94,4.94,-0.98
6,-8.24,5.06,-1.06
6.04,-8.08,4.98,-1.02
6.09,-7.81,5.02,-0.9
6.13,-8.47,5.06,-0.82
6.17,-9.14,4.47,-0.86
6.21,-9.18,5.41,-0.39
6.25,-9.96,4.04,0.04
6.3,-13.34,7.88,-2.71
6.34,-8.32,6.98,-2.63
6.38,-8.24,6.35,-1.73
6.42,-10.24,7.34,-1.33
6.46,-9.53,3.8,-2.2
6.51,-7.1,5.26,-0.63
6.55,-5.45,7.02,-2
6.59,-6.63,6.35,-0.43
6.63,-6.47,6,-1.02
6.67,-6.24,5.18,-0.98
6.72,-5.61,4.82,0.67
6.76,-6.08,6.28,1.57
6.8,-8.87,8.55,2.47
6.84,-9.22,7.3,0.43
6.88,-7.37,5.3,2.16
6.92,-13.3,10.63,-3.1
6.97,-4.71,8.87,-4.51
7.01,-5.77,7.53,-3.88
7.05,-7.45,5.65,-4.67
7.09,-7.3,7.06,-2.16
7.13,-6.51,6.86,-3.14
7.18,-7.92,4.75,-2.71
7.22,-6.98,4.12,-1.84
7.26,-8.43,4.79,-1.26
7.3,-8.36,5.45,-1.65
7.34,-7.61,4.75,-0.67
7.39,-8.12,5.49,-0.86
7.43,-8.08,5.49,-1.37
7.47,-8.59,5.37,-0.27
7.51,-10.36,4.31,-0.82
7.55,-12.98,7.73,-2.39
7.6,-10.04,9.3,-2.63
7.64,-6.94,5.65,-3.73
7.68,-8.43,8.71,-0.94
7.72,-10.47,7.45,-1.22
7.76,-8.04,3.77,-0.55
7.81,-6.47,6,-0.43
7.85,-5.18,6.86,-1.1
7.89,-5.06,5.22,-0.04
7.93,-6.04,5.81,-0.82
7.97,-5.84,5.14,0
8.02,-6.43,4.82,0.86
8.06,-7.45,6.12,1.96
8.1,-9.69,7.61,1.41
8.14,-8.79,6.59,1.1
8.18,-8.87,8.55,2.75
8.22,-7.1,5.92,-1.84
8.27,-7.92,9.45,-0.82
8.31,-5.41,6.35,-5.73
8.35,-7.57,6.55,-3.77
8.39,-6.83,7.06,-3.84
8.43,-7.96,5.84,-2.31
8.48,-7.81,4.75,-2.28
8.52,-7.77,4.75,-1.37
8.56,-8.43,5.61,-1.45
8.6,-8.12,4.98,-1.41
8.64,-8.04,5.06,-1.14
8.69,-8.51,5.26,-0.75
8.73,-9.06,5.18,-0.43
8.77,-9.38,4.79,-0.9
8.81,-10.12,4.9,-1.14
8.85,-11.96,7.53,-1.8
8.9,-9.65,7.81,-2.16
8.94,-7.22,6.08,-3.22
8.98,-8.43,7.77,-0.71
9.02,-9.57,7.1,-1.37
9.06,-8.16,5.37,-0.59
9.11,-6.9,6,-0.94
9.15,-6.79,6.75,-0.55
9.19,-6.16,6.12,-0.59
9.23,-6.43,6.12,-0.47
9.27,-5.49,5.65,0.24
9.32,-5.92,5.49,1.06
9.36,-7.06,5.96,1.65
9.4,-8.12,7.92,2.67
9.44,-8,6.55,2
9.48,-8.71,9.34,0.24
9.52,-7.96,8.04,-3.18
9.57,-7.37,8.43,0.35
9.61,-7.49,7.02,-5.77
9.65,-7.14,5.65,-3.06
9.69,-5.88,8.08,-3.02
9.73,-7.18,6.9,-2.67
9.77,-7.65,5.22,-2.16
9.82,-7.81,4.94,-1.41
9.86,-8.28,5.77,-1.53
9.9,-7.57,6.39,-1.61
9.94,-7.69,5.61,-1.69
9.98,-8.47,5.41,-1.8
10.03,-8.39,4.67,-1.18
10.07,-8.08,5.77,-1.37
10.11,-8.71,3.65,-1.69
10.15,-8.08,2.79,-1.65
10.19,-11.65,8.51,-2.63
10.24,-8.9,11.89,-3.53
10.28,-5.77,11.38,-3.92
10.32,-8.08,9.53,-3.02
10.36,-6.71,6.43,-3.18
10.4,-6.63,6.98,-2.16
10.45,-7.57,6.59,-1.41
10.49,-7.22,5.73,-0.59
10.53,-5.88,6.39,-0.63
10.57,-6.32,5.81,0.04
10.61,-6.51,5.41,0.75
10.66,-6.08,4.94,2.43
10.7,-6.94,5.84,1.92
10.74,-6.32,7.02,3.06
10.78,-6.83,7.73,3.3
10.82,-7.41,11.38,1.37
10.87,-5.96,8.98,0.2
10.91,-7.22,10.28,-4.59
10.95,-5.84,8,-4.86
10.99,-5.61,6.2,-4.47
11.03,-8,7.49,-3.84
11.07,-8.32,6.55,-3.61
11.12,-6.83,4.9,-3.92
11.16,-8.87,4.55,-3.06
11.2,-8.24,4.75,-3.3
11.24,-8.79,4.63,-2.82
11.28,-9.53,5.14,-2.82
11.33,-9.26,4.24,-1.73
11.37,-9.65,2.43,-0.43
11.41,-9.92,4.12,0.98
11.45,-9.34,3.06,0.39
11.49,-8.59,5.26,0.9
11.54,-10.28,5.1,-1.37
11.58,-11.69,7.77,-2.28
11.62,-7.77,5.73,-1.84
11.66,-10.04,7.41,-0.12
11.7,-11.38,7.81,-0.35
11.75,-6.94,5.33,-1.37
11.79,-6.16,6.51,-1.02
11.83,-6.16,6,-1.06
11.87,-5.41,5.77,-0.43
11.91,-6.63,6.28,-0.16
11.96,-6.2,5.1,0.16
12,-6.63,4.75,0.94
12.04,-7.73,5.88,2.67
12.08,-9.96,6.67,3.41
12.12,-7.81,4.67,1.37
12.16,-7.81,10.51,0.27
12.21,-6.79,9.85,-2
12.25,-6.24,7.34,-2.24
12.29,-6.75,6.24,-5.73
12.33,-6.51,6.35,-2.35
12.37,-5.84,7.34,-2.47
12.42,-7.45,5.49,-2.31
12.46,-7.65,4.51,-1.96
12.5,-8.47,5.26,-1.37
12.54,-8,5.37,-1.14
12.58,-7.85,5.33,-1.18
12.63,-8.16,5.02,-0.43
12.67,-8.75,5.33,-0.55
12.71,-8.75,4.94,-0.59
12.75,-9.1,5.22,-0.35
12.79,-9.57,5.49,-2.24
12.84,-10.59,8.32,-1.1
12.88,-8.59,6.98,-2.98
12.92,-6.63,6.86,-2.28
12.96,-8.08,8.04,-0.63
13,-8.63,7.34,-1.33
13.05,-6.75,5.81,-1.02
13.09,-6.39,6.86,-0.67
13.13,-4.79,6.35,0.24
13.17,-6.51,5.88,-0.71
13.21,-6.04,5.49,-0.04
13.26,-5.77,5.53,0.2
13.3,-7.26,4.98,2.24
13.34,-9.02,6.43,2.59
13.38,-8.79,7.02,1.49
13.42,-8.32,9.3,1.61
13.46,-5.92,8.16,-1.69
13.51,-6.43,9.38,-2.04
13.55,-6.32,6,-5.45
13.59,-6.83,4.98,-2.82
13.63,-6.12,7.3,-2.86
13.67,-7.96,5.53,-1.88
13.72,-7.57,4.51,-1.49
13.76,-8.16,4.94,-1.29
13.8,-8.98,4.98,-1.53
13.84,-8.47,4.79,-1.53
13.88,-8.28,4.59,-0.43
13.93,-9.3,5.26,-0.59
13.97,-8.47,5.18,-0.78
14.01,-9.26,4.67,-1.1
14.05,-10.59,4.94,-2.31
14.09,-11.18,10.24,-2.86
14.14,-7.61,7.45,-2.86
14.18,-6.94,8.04,-1.45
14.22,-8.32,8.59,-0.9
14.26,-7.34,5.14,-1.18
14.3,-6.51,6.12,-0.08
14.35,-5.77,7.61,-1.26
14.39,-5.84,6.51,-0.98
14.43,-6.04,5.45,0.39
14.47,-4.86,5.73,0.04
14.51,-6.16,5.06,0.82
14.56,-7.1,5.1,1.53
14.6,-9.22,6.63,2.55
14.64,-9.34,6.39,2
14.68,-7.65,6.71,2.12
14.72,-12.4,9.77,-4.08
14.76,-5.02,7.85,-2.35
14.81,-5.77,8.04,-5.81
14.85,-8.47,7.22,-2.79
14.89,-4.9,7.41,-3.18
14.93,-7.85,4.16,-1.84
14.97,-7.81,4.43,-2.35
15.02,-8.04,4.71,-1.45
15.06,-8.83,5.33,-1.26
15.1,-7.96,4.98,-0.59
15.14,-8.59,4.86,-0.78
15.18,-9.3,5.49,-0.43
15.23,-8.67,5.02,-0.12
15.27,-9.92,5.1,-0.94
15.31,-9.81,5.3,-1.14
15.35,-11.77,8.87,-2.9
15.39,-6.71,6.43,-2.98
15.44,-8.28,8.71,-0.78
15.48,-9.26,6.28,-0.63
15.52,-6.83,4.63,-1.33
15.56,-6.98,6.24,-0.2
15.6,-5.57,7.45,-0.35
15.65,-6.2,6.59,-0.27
15.69,-5.92,5.26,0.2
15.73,-5.84,5.96,0.35
15.77,-6.71,5.18,1.29
15.81,-7.3,5.88,2.79
15.86,-8.9,6.28,3.41
15.9,-8.87,5.45,2.47
15.94,-6.79,7.14,2.39
15.98,-10.43,12.47,-3.14
16.02,-5.49,8.67,-1.69
16.07,-6.59,6.79,-4.63
16.11,-7.18,6.55,-3.18
16.15,-6,6.63,-2.28
16.19,-7.22,6.08,-2.43
16.23,-8.04,4.9,-2.71
16.27,-7.41,4.71,-1.26
16.32,-8.98,4.59,-1.26
16.36,-8.08,5.45,-1.02
16.4,-7.45,5.02,-0.75
16.44,-8.16,5.37,-0.43
16.49,-8.59,5.02,-0.59
16.53,-9.02,4.71,-1.02
16.57,-9.73,5.77,-0.71
16.61,-11.45,6.35,-0.98
16.65,-11.77,7.49,-2.43
16.69,-7.22,6.79,-3.33
16.74,-8.75,8.39,-0.9
16.78,-9.89,7.65,-1.06
16.82,-7.14,4.86,-1.26
16.86,-6.98,7.02,-0.82
16.91,-6.32,6.55,-1.29
16.95,-5.73,6.16,-0.16
16.99,-5.02,5.53,0.47
17.03,-5.14,5.33,0.78
17.07,-6.04,5.49,2.24
17.11,-7.53,5.96,3.22
17.16,-8.94,6.71,2
17.2,-6.79,6.35,1.88
17.24,-11.22,12.91,-0.98
17.28,-6.67,9.34,-1.88
17.32,-6.98,6.79,-3.84
17.36,-7.14,5.53,-3.88
17.41,-6.98,5.65,-2.12
17.45,-5.77,9.26,-2.98
17.49,-7.69,5.61,-1.92
17.53,-7.73,4.43,-1.14
17.58,-8.79,4.75,-0.98
17.62,-8.28,4.75,-0.39
17.66,-7.92,4.79,-0.98
17.7,-8,5.18,-0.71
17.74,-8.47,5.53,-0.63
17.78,-8.32,5.14,-0.78
17.83,-8.63,5.14,-0.47
17.87,-10.04,4.39,-1.57
17.91,-11.89,7.45,-1.84
17.95,-9.61,6.55,-2.35
18,-6.98,5.96,-1.77
18.04,-8.32,7.26,-1.26
18.08,-9.73,5.41,-1.06
18.12,-8.59,5.14,-0.12
18.16,-7.96,6.63,-0.86
18.2,-6.83,6.16,-0.63
18.25,-6.51,5.81,-0.67
18.29,-6.16,5.57,-0.2
18.33,-5.96,5.14,-0.24
18.37,-6.9,5.18,0.98
18.42,-7.14,6.24,1.69
18.46,-9.14,7.45,1.57
18.5,-7.69,6.39,2.12
18.54,-12.51,7.88,1.53
18.58,-4.43,8.12,-1.8
18.62,-7.69,7.49,-2.35
18.67,-7.02,5.77,-5.14
18.71,-6.63,5.49,-1.57
18.75,-7.57,7.06,-2.98
18.79,-7.92,6.28,-1.53
18.83,-7.88,5.81,-2.04
18.88,-7.37,5.37,-1.45
18.92,-7.96,6.04,-1.49
18.96,-7.57,5.57,-1.61
19,-7.85,5.1,-1.06
19.04,-8.47,5.45,0.43
19.09,-9.26,4.9,-0.55
19.13,-7.41,5.92,-1.65
19.17,-9.45,7.34,-2.79
19.21,-11.65,7.65,-2.51
19.25,-9.77,6.04,-2.35
19.3,-7.26,5.22,-2.63
19.34,-6.59,6.67,-2.2
19.38,-6.55,7.69,-1.88
19.42,-6.55,7.45,-1.53
19.46,-7.26,6.9,-1.02
19.51,-7.3,5.81,-0.39
19.55,-7.53,6.24,-0.63
19.59,-6.28,6.39,-0.27
19.63,-6.67,6.9,-0.9
19.67,-6.59,6.35,-0.16
19.72,-7.57,5.73,-0.12
19.76,-7.3,6.32,1.18
19.8,-8.2,6.32,0.63
19.84,-7.06,5.26,0.43
19.88,-9.18,8.47,-0.78
19.93,-5.65,9.53,-4.16
19.97,-6.94,8.75,-1.8
20.01,-7.18,7.18,-4.16
20.05,-7.3,4.28,-2.98
20.09,-7.81,6,-3.02
20.14,-7.85,6.75,-2.47
20.18,-8.2,6.47,-2.35
20.22,-7.92,5.65,-0.94
20.26,-8.24,4.98,-2.04
20.3,-8.28,5.26,-1.45
20.35,-8.28,4.9,-1.41
20.39,-8.16,5.3,-1.8
20.43,-7.61,5.96,-1.65
20.47,-8.32,5.96,-1.06
20.51,-8.63,5.45,-0.63
20.56,-8.55,5.26,-0.9
20.6,-12.16,7.14,-2.47
20.64,-9.57,7.61,-2.43
20.68,-7.92,6.39,-2.9
20.72,-7.06,6.9,-2.28
20.77,-8,8,-1.77
20.81,-7.88,7.57,-1.84
20.85,-6.63,5.96,-1.41
20.89,-5.81,7.57,-1.53
20.93,-6.67,7.49,-1.02
20.98,-6.75,7.14,-1.06
21.02,-6.51,6.79,-1.33
21.06,-6.75,5.88,-1.14
21.1,-7.1,5.41,-0.31
21.14,-7.06,5.1,-0.24
21.19,-7.26,5.53,0.35
21.23,-7.77,5.33,0.27
21.27,-8.71,7.69,0.08
21.31,-10.79,12.08,-0.51
21.35,-6.28,6.55,-1.18
21.4,-5.22,5.96,-3.22
21.44,-7.22,7.06,-2.86
21.48,-7.22,7.73,-2.98
21.52,-7.57,7.06,-2.55
21.56,-8.47,5.69,-2.55
21.6,-8.51,5.45,-2.39
21.65,-9.1,4.28,-2.16
21.69,-8.63,4.51,-1.29
21.73,-8.55,4.43,-1.37
21.77,-9.02,4.79,-0.98
21.82,-8.75,3.84,-0.59
21.86,-8.75,4.55,0.82
21.9,-8.83,3.88,-0.55
21.94,-7.73,4.71,-1.1
21.98,-11.06,4.94,-2.04
22.02,-11.73,6.83,-1.92
22.07,-9.45,7.96,-1.61
22.11,-8.98,7.02,-2.67
22.15,-6.79,5.73,-2.9
22.19,-6.32,6.39,-2.24
22.24,-8.2,8.08,-1.14
22.28,-7.57,7.61,-0.35
22.32,-7.18,6.59,-0.75
22.36,-7.41,6.28,-0.2
22.4,-6.67,5.69,0.27
22.44,-5.96,6.24,0.94
22.49,-6.71,5.53,0.39
22.53,-6.75,5.06,0.59
22.57,-6.83,5.26,1.84
22.61,-7.61,5.22,2.59
22.65,-7.96,5.65,2.39
22.7,-8.83,6.75,0.98
22.74,-8.12,10.98,1.14
22.78,-5.61,8,-1.69
22.82,-6.39,9.26,-2.55
22.86,-6.04,7.49,-2.47
22.91,-5.22,6.86,-2.86
22.95,-7.26,7.88,-2.86
22.99,-7.41,6.83,-2.71
23.03,-7.73,5.73,-2.12
23.07,-8.24,5.06,-2.98
23.11,-8.71,5.84,-2.59
23.16,-8,6.08,-1.69
23.2,-9.06,4.82,-2.28
23.24,-9.02,4.63,-2.08
23.28,-8.87,4.31,-0.94
23.33,-8.98,4.2,-1.22
23.37,-9.18,4.31,-1.45
23.41,-8.55,5.14,-0.75
23.45,-9.22,4.75,-1.22
23.49,-11.02,7.65,-3.26
23.53,-8.39,8.63,-2.43
23.58,-6.79,7.22,-4.16
23.62,-5.65,7.02,-2.71
23.66,-7.57,7.96,-2.39
23.7,-8.36,6.67,-1.14
23.75,-7.61,6.32,-0.94
23.79,-6.63,7.18,-0.86
23.83,-6.79,7.02,-0.67
23.87,-6.16,6.32,0
23.91,-6.51,5.53,0.63
23.95,-6.63,5.14,1.1
24,-7.22,5.53,2.86
24.04,-6.67,5.77,3.96
24.08,-6.63,5.53,3.02
24.12,-9.3,10.04,-1.69
24.16,-7.34,8.94,-0.78
24.2,-7.18,7.61,-2.71
24.25,-7.69,8.08,-2.94
24.29,-5.92,6.32,-3.61
24.33,-7.37,7.37,-2.47
24.37,-7.53,6.51,-2.82
24.42,-7.61,5.14,-2.39
24.46,-9.14,4.75,-2.16
24.5,-9.06,5.06,-1.73
24.54,-8.59,4.9,-0.98
24.58,-8.43,4.86,-1.26
24.62,-8.51,4.98,-0.98
24.67,-8.79,4.51,-0.71
24.71,-8.87,4.55,-0.12
24.75,-7.96,5.61,-0.04
24.79,-8.24,4.86,-0.63
24.83,-9.3,5.37,-1.65
24.88,-13.22,8.43,-2.75
24.92,-9.02,6.98,-2.51
24.96,-6.71,5.18,-2.47
25,-7.49,6.79,-0.86
25.05,-9.06,4.55,-1.49
25.09,-9.14,5.18,-0.12
25.13,-7.92,5.53,-0.55
25.17,-7.1,5.33,0.43
25.21,-7.73,5.45,0
25.25,-8.16,5.02,0.04
25.3,-7.41,4.43,1.18
25.34,-6.75,5.69,0.04
25.38,-6.9,5.53,0.16
25.42,-6.9,6.55,0.75
25.46,-6.47,6.63,1.06
25.5,-7.18,7.57,-0.2
25.55,-10.36,6.9,2.71
25.59,-7.3,9.81,-5.84
25.71,-7.92,4.28,-2.75
25.75,-9.1,5.77,-1.29
25.8,-8.55,5.33,-0.94
25.84,-8.55,4.71,-0.2
25.88,-8.28,4.59,-0.24
25.92,-8.71,5.02,-0.9
25.97,-8.39,5.37,-0.86
26.01,-8.24,5.1,-0.63
26.05,-8.12,5.26,-1.33
26.09,-8.28,5.37,-0.82
26.13,-8.59,4.86,-0.55
26.17,-8.39,4.98,-1.49
26.22,-8.2,5.22,-1.61
26.26,-10.51,6.79,-3.06
26.3,-10.4,8.59,-2.31
26.34,-9.02,7.26,-2.39
26.39,-7.41,6.98,-2.51
26.43,-4.9,7.61,-1.88
26.47,-7.73,8.08,-1.06
26.51,-8.55,7.06,-0.51
26.55,-7.02,6.51,-0.67
26.59,-6.12,7.02,-0.59
26.64,-5.53,7.14,-0.47
26.68,-4.86,7.06,0.04
26.72,-5.65,6.08,-0.59
26.76,-6,5.18,0.55
26.81,-7.61,5.57,2.04
26.85,-8.79,6.32,2.82
26.89,-8.75,4.94,1.92
26.93,-9.89,10.51,0.08
26.97,-3.61,9.45,-2.39
27.01,-6.75,9.38,-0.59
27.06,-7.45,5.69,-3.41
27.1,-6.63,6.12,-2.47
27.14,-5.45,8.9,-4.47
27.18,-7.61,6.79,-2.86
27.22,-7.61,5.22,-2.16
27.27,-8.87,5.45,-1.96
27.31,-8.39,5.53,-2.16
27.35,-8.47,5.69,-1.69
27.39,-8.43,4.82,-1.65
27.43,-8.83,4.67,-1.18
27.48,-8.94,4.98,-0.27
27.52,-8.39,5.18,-0.75
27.56,-9.3,6.32,-1.22
27.6,-10.55,8.28,-1.77
27.64,-10.47,6.63,-1.73
27.69,-7.92,5.73,-2.94
27.73,-5.18,6.9,-1.29
27.77,-8.43,7.73,-0.63
27.81,-8.71,6.59,0.08
27.85,-7.34,6.32,-0.24
27.9,-6,6.94,2.12
27.94,-5.61,5.41,2.43
27.98,-5.73,5.73,1.8
28.02,-5.65,5.92,0.9
28.06,-6,5.88,1.18
28.1,-7.41,5.88,2.28
28.15,-7.41,6.04,3.3
28.19,-6.55,6.94,2
28.23,-6.63,6.9,1.53
28.27,-11.65,11.06,0.43
28.31,-6.24,9.61,-0.82
28.35,-6.67,7.45,-3.3
28.4,-6.67,5.96,-3.92
28.44,-6.67,5.41,-3.1
28.48,-6.71,7.81,-1.92
28.52,-8.08,5.33,-1.88
28.56,-7.96,4.2,-1.92
28.61,-8.32,4.94,-1.49
28.65,-8.67,5.45,-1.02
28.69,-7.77,5.18,-1.45
28.73,-8.16,5.84,-1.18
28.77,-8.32,5.65,0
28.82,-8.39,5.02,-0.43
28.86,-8,6.2,-1.02
28.9,-8.67,5.45,-1.33
28.94,-12.32,6.98,-1.84
28.98,-10.28,6.39,-2.31
29.03,-6.75,5.45,-2.71
29.07,-9.69,8.16,-1.18
29.11,-9.92,5.92,-1.41
29.15,-7.96,5.61,-0.63
29.19,-7.1,6.94,-1.1
29.24,-6.67,6.43,-0.27
29.28,-6.39,5.1,0.55
29.32,-7.02,5.53,-0.2
29.36,-5.65,5.61,-0.08
29.4,-5.81,5.06,0.47
29.45,-7.34,5.92,2.04
29.49,-7.81,6.12,3.77
29.53,-8,5.45,2.2
29.57,-7.41,1.73,3.26
29.61,-14.91,12.16,-3.14
29.65,-4.28,11.53,-1.77
29.7,-3.06,4.55,-4.35
29.74,-9.89,6.75,-5.18
29.78,-6.04,7.53,-2.55
29.82,-5.14,7.65,-2
29.86,-9.14,5.33,-1.57
29.91,-7.57,5.02,-1.92
29.95,-8.32,4.82,-0.9
29.99,-8.2,5.61,-0.78
30.03,-7.53,5.41,-1.14
30.07,-8,5.45,-0.82
30.12,-8,5.84,-0.94
30.16,-8.63,5.06,-0.82
30.2,-8.39,5.53,-1.14
30.24,-9.18,5.1,-1.57
30.28,-11.65,7.41,-1.65
30.33,-9.89,6.28,-1.92
30.37,-7.53,6.35,-3.02
30.41,-7.06,7.96,-1.53
30.45,-10.47,7.14,-1.14
30.49,-9.06,5.37,-0.43
30.54,-7.37,6.63,-0.51
30.58,-7.77,6.86,-1.37
30.62,-5.88,6,-0.31
30.66,-5.81,5.77,-0.39
30.7,-5.33,5.81,-0.55
30.75,-6.55,5.96,1.1
30.79,-6.9,5.96,2.35
30.83,-8.75,7.22,3.96
30.87,-7.65,6.39,1.06
30.91,-9.92,9.61,3.26
30.95,-8.75,5.26,-4.08
31,-8.24,9.81,1.18
31.04,-6.94,6.16,-4.55
31.08,-7.69,4.24,-3.06
31.12,-7.02,6.71,-2.35
31.16,-7.22,6.59,-1.88
31.21,-8.12,5.37,-1.84
31.25,-7.61,4.63,-1.18
31.29,-8.32,5.1,-1.18
31.33,-8.32,5.65,-1.14
31.37,-7.69,5.45,-0.98
31.42,-7.92,5.37,-0.63
31.46,-8.87,5.22,-0.04
31.5,-8.87,5.18,-0.63
31.54,-9.06,5.84,-1.37
31.58,-12.12,7.65,-1.96
31.63,-10.51,6.94,-1.8
31.67,-7.18,5.53,-2.98
31.71,-7.85,8.43,-0.59
31.75,-9.65,7.49,-1.45
31.79,-8.32,4.79,-1.18
31.84,-7.14,6.71,-1.06
31.88,-6.28,6.71,-1.02
31.92,-6.75,6.55,-0.39
31.96,-6.67,5.37,-0.2
32,-5.84,5.57,-0.39
32.05,-6.24,5.14,1.29
32.09,-7.57,6,2.67
32.13,-9.14,6.75,3.22
32.17,-7.26,5.14,1.26
32.21,-7.73,7.18,3.18
32.26,-13.26,10.63,-2.16
32.3,-7.37,6.9,-1.57
32.34,-6.67,5.81,-4
32.38,-7.73,4.39,-3.33
32.42,-7.14,6.86,-1.92
32.47,-7.57,6.75,-1.92
32.51,-8.39,5.14,-1.65
32.55,-7.61,4.59,-1.26
32.59,-8.75,5.33,-1.14
32.63,-8.2,5.77,-1.41
32.68,-7.65,5.22,-1.37
32.72,-8.08,5.81,-1.65
32.76,-7.88,5.65,-0.78
32.8,-8.55,5.45,-0.35
32.84,-8.24,6.35,-1.06
32.89,-10,5.06,-2.79
32.93,-12.55,8.04,-2.2
32.97,-8.94,6.12,-1.26
33.01,-6.2,5.73,-1.96
33.05,-8.67,7.41,-0.67
33.1,-10.04,6.08,-1.61
33.14,-8.43,5.45,-0.51
33.18,-6.75,6.32,-1.53
33.22,-6.83,6.39,-1.18
33.26,-6.59,5.73,-0.43
33.31,-5.73,6,-1.18
33.35,-6.2,5.61,-0.75
33.39,-6.55,5.73,0.08
33.43,-6.94,6.04,1.57
33.47,-9.81,6.08,3.41
33.52,-10.04,5.65,1.37
33.56,-8,4.16,2.24
33.6,-14.4,9.65,-1.26
33.64,-4.79,9.26,-1.84
33.68,-6.12,6.94,-4.24
33.72,-6.9,6.08,-4.51
33.77,-6.43,7.69,-1.45
33.81,-5.18,7.81,-2.82
33.85,-8.24,4.35,-2.12
33.89,-7.57,4.43,-1.37
33.93,-8.51,5.49,-1.14
33.98,-8,5.41,-1.06
34.02,-7.73,5.33,-1.61
34.06,-7.85,5.33,-0.86
34.1,-8.47,5.37,-0.94
34.14,-8.67,5.45,-0.35
34.19,-9.22,5.37,-1.22
34.23,-10.12,5.33,-2.63
34.27,-11.77,9.45,-2.71
34.31,-8.83,6.83,-2.51
34.35,-5.18,5.96,-2.71
34.4,-8.16,7.57,-0.67
34.44,-9.3,6.08,-1.14
34.48,-7.3,5.92,-0.98
34.52,-6.59,5.65,-0.27
34.56,-6,6.43,-0.43
34.6,-5.84,6.43,-0.31
34.65,-5.53,5.49,0.47
34.69,-6.9,5.33,0.55
34.73,-7.1,4.86,1.53
34.77,-7.77,5.06,2.59
34.81,-8.43,6.24,1.57
34.86,-8.32,7.41,1.1
34.9,-7.37,6.71,1.77
34.94,-11.65,9.69,-0.43
34.98,-5.06,8.51,-1.65
35.02,-6.51,7.88,-1.57
35.06,-6.59,5.96,-5.1
35.11,-6.9,6.63,-2.24
35.15,-6.98,7.1,-3.02
35.19,-7.96,5.45,-2.47
35.23,-7.85,4.9,-2.04
35.28,-8.36,5.41,-1.53
35.32,-8.59,5.84,-1.29
35.36,-8,4.9,-1.14
35.4,-8.32,5.1,-1.22
35.44,-8.39,5.18,-1.33
35.49,-8.51,5.26,-0.9
35.53,-8.43,5.49,-0.75
35.57,-7.92,5.49,-1.26
35.61,-8.16,5.02,-0.47
35.65,-11.73,6.08,-2.55
35.69,-11.18,10.28,-2.79
35.74,-6.67,6.43,-3.77
35.78,-8.36,7.26,-1.26
35.82,-9.18,6.98,-2.12
35.86,-8.32,4.71,-1.33
35.9,-7.41,6.35,-1.65
35.95,-6.12,7.41,-1.69
35.99,-6.55,6.55,-0.71
36.03,-7.26,6.32,-0.94
36.07,-7.37,6.08,-0.39
36.12,-7.34,6.28,0.08
36.16,-6.32,6.24,0
36.2,-6.47,6.71,-0.43
36.24,-5.81,6.43,-0.55
36.28,-6.75,6.39,0.35
36.33,-7.18,5.92,1.45
36.37,-7.61,5.69,1.14
36.41,-6.94,4.71,1.26
36.45,-12.59,14.12,0.04
36.49,-4.2,8.98,-1.22
36.53,-3.96,5.49,-1.41
36.58,-7.1,7.45,-4.35
36.62,-6.98,7.34,-2.28
36.66,-5.49,8.28,-3.41
36.7,-6.83,6.79,-3.3
36.74,-7.22,6.71,-4.12
36.79,-7.73,6.79,-3.26
36.83,-7.73,6.43,-3.88
36.87,-7.92,7.22,-4.08
36.91,-9.45,5.26,-3.96
36.96,-9.14,4.94,-2.82
37,-8.39,6,-2
37.04,-8.08,5.14,-2.31
37.08,-8.55,2.71,-1.14
37.12,-10.55,4.51,-0.39
37.17,-8.75,6.75,-2.35
37.21,-7.06,8.04,-1.88
37.25,-7.06,9.41,-2.67
37.29,-6.59,6.59,-1.49
37.33,-7.3,6,0.16
37.38,-7.92,6,0.55
37.42,-7.69,5.65,0.71
37.46,-7.53,6.79,0.86
37.5,-6.71,7.22,0.75
37.54,-5.69,7.34,0.59
37.58,-6.04,7.53,0.51
37.63,-5.96,7.37,0.82
37.67,-6.12,6.28,1.53
37.71,-5.92,5.73,1.57
37.75,-5.57,5.37,2.31
37.79,-6.08,6.32,2.86
37.83,-5.77,6.79,3.26
37.88,-6,6.43,2.31
37.92,-10.87,15.53,0.27
37.96,-1.06,5.1,1.26
38,-5.37,8.16,-2.47
38.04,-7.14,8.87,-3.41
38.08,-6.12,6.63,-2.43
38.13,-6.43,7.14,-2.31
38.17,-7.88,6.67,-1.92
38.21,-6.83,5.06,-1.88
38.25,-7.88,5.49,-2.2
38.29,-8.04,6.12,-1.96
38.34,-7.3,5.57,-2.08
38.38,-8,5.84,-1.92
38.42,-7.92,5.65,-1.77
38.46,-8.2,5.77,-1.53
38.51,-8.2,5.53,-1.1
38.55,-8.04,5.02,-0.55
38.59,-8.39,5.06,-0.55
38.63,-8.9,5.06,-0.9
38.67,-8.28,5.61,-0.08
38.72,-9.06,4.86,-1.18
38.76,-12.08,7.73,-2.63
38.8,-9.77,9.89,-2.9
38.84,-6.39,5.49,-3.33
38.88,-9.61,10.12,-1.26
38.92,-9.26,6.51,-1.77
38.97,-7.37,3.73,-1.49
39.01,-6.67,7.26,-1.02
39.05,-5.84,6.75,-1.14
39.09,-5.61,6.35,-0.55
39.13,-6.08,6.39,-1.22
39.18,-6.59,5.57,0.35
39.22,-6.94,5.53,0.31
39.26,-5.81,5.73,0.35
39.3,-6.12,5.84,1.06
39.35,-7.69,6.47,1.73
39.39,-8.39,6.32,2.35
39.43,-8.43,6.12,2.16
39.47,-7.3,8.67,1.41
39.51,-12.47,12.24,-1.45
39.55,-3.8,7.14,-1.73
39.6,-7.02,8.04,-3.73
39.64,-7.61,7.22,-2.39
39.68,-5.69,7.18,-3.18
39.72,-6.55,7.69,-3.92
39.76,-8.08,6.2,-2.28
39.81,-7.41,5.61,-2.43
39.85,-7.96,6.12,-1.8
39.89,-7.53,6.63,-1.49
39.93,-7.14,6.35,-2.2
39.97,-7.14,6.35,-1.8
40.02,-7.34,6.2,-1.45
40.06,-7.88,5.77,-1.57
40.1,-8.39,5.77,-1.1
40.14,-8,5.88,-1.14
40.27,-7.81,5.33,-0.98
40.31,-8.24,4.98,-1.22
40.35,-8.59,5.1,-0.75
40.39,-8.55,5.02,-0.98
40.44,-9.1,4.75,-1.33
40.48,-10.9,7.1,-2.71
40.52,-7.88,8.55,-1.65
40.56,-8.32,7.26,-2.28
40.6,-6.75,7.53,-2.28
40.65,-8.55,8.63,-1.45
40.69,-8.87,8,-0.94
40.73,-7.49,6.47,-1.45
40.77,-6.83,7.81,-1.49
40.81,-5.81,7.85,-1.45
40.86,-6.2,7.26,-0.35
40.9,-5.92,5.81,-0.67
40.94,-5.92,5.3,-0.04
40.98,-5.84,5.1,0.39
41.02,-5.49,5.57,1.49
41.07,-6.71,5.81,2.63
41.11,-9.26,6.28,2.43
41.15,-9.22,5.02,2.82
41.19,-8.83,10.12,2.67
41.23,-8.2,12.16,-1.77
41.28,-4.2,6.2,-1.65
41.32,-8.04,7.88,-6.2
41.36,-6.24,7.57,-1.37
41.4,-4.31,7.85,-3.26
41.44,-7.3,6.71,-2.75
41.49,-6.79,7.02,-3.1
41.53,-7.37,5.73,-1.96
41.57,-8.47,5.57,-2.59
41.61,-8.28,5.88,-1.33
41.65,-8.63,5.96,-1.77
41.7,-8.36,5.69,-1.96
41.74,-8.67,5.61,-1.73
41.78,-8.2,5.37,-1.22
41.82,-8.12,5.41,-0.71
41.86,-9.34,5.53,-0.08
41.91,-9.49,4.75,-0.47
41.95,-9.45,4.67,-1.02
41.99,-11.41,8.36,-2.67
42.03,-6.94,7.81,-2.94
42.07,-7.41,9.81,-1.06
42.12,-8.75,7.85,-0.71
42.16,-7.1,4.2,-0.43
42.2,-6.55,5.02,0.04
42.24,-6.28,6.63,-0.43
42.28,-4.71,7.57,0.63
42.33,-5.77,7.06,0.9
42.37,-6.43,5.69,0.63
42.41,-7.3,6.04,1.65
42.45,-6.39,5.61,1.18
42.49,-5.37,5.41,1.69
42.53,-6.63,5.69,2.63
42.58,-8.28,5.73,3.69
42.62,-9.53,5.73,2.82
42.66,-10.71,14.87,2.08
42.7,-4,9.41,-0.27
42.74,-5.26,6.86,0.47
42.79,-8.47,7.14,-7.02
42.83,-6.79,7.14,-1.33
42.87,-3.61,6.55,-2.79
42.91,-7.73,6.71,-2.04
42.95,-7.1,5.88,-3.49
43,-7.18,5.88,-1.96
43.04,-8.04,6.2,-2.51
43.08,-7.61,6.2,-1.84
43.12,-8.32,5.84,-1.41
43.16,-8.75,5.49,-0.98
43.21,-8.59,5.1,-0.9
43.25,-8.63,4.98,-1.02
43.29,-7.57,5.61,-1.29
43.33,-8.2,5.73,-0.86
43.37,-8.12,5.45,-0.55
43.42,-9.02,4.94,-0.67
43.46,-12.71,7.49,-2.28
43.5,-9.22,9.81,-3.14
43.54,-7.49,5.84,-3.57
43.58,-9.22,10.83,-0.94
43.63,-8.12,6.24,-1.06
43.67,-7.18,3.96,-1.69
43.71,-7.02,7.14,-0.43
43.75,-5.26,7.26,-0.75
43.79,-5.45,6.94,-0.08
43.84,-6.28,6.12,-0.47
43.88,-6.98,5.96,1.33
43.92,-7.34,5.92,1.02
43.96,-7.26,6.12,1.18
44,-6.32,5.37,1.57
44.05,-7.02,6.32,1.69
44.09,-8.04,6,2.04
44.13,-7.22,5.57,1.92
44.17,-5.92,4.79,1.73
44.21,-8.87,12.16,2.12
44.26,-10.59,13.85,-4.08
44.3,-4.51,5.33,1.26
44.34,-8.75,7.53,-5.96
44.38,-7.18,7.53,-1.61
44.42,-4.47,7.88,-2.31
44.47,-7.1,7.45,-2.04
44.51,-8.28,5.22,-2.2
44.55,-7.57,5.02,-2.2
44.59,-8.39,5.88,-0.94
44.63,-7.34,5.84,-1.41
44.67,-7.41,6.2,-1.45
44.72,-7.49,6.55,-1.53
44.76,-8.08,6.55,-1.41
44.8,-7.81,5.1,-1.49
44.84,-8.2,5.26,-0.82
44.88,-8.36,5.33,-0.59
44.93,-8.2,5.49,-0.82
44.97,-7.85,5.41,-0.51
45.01,-9.34,4.59,-0.47
45.05,-12.63,7.06,-2.28
45.1,-8.67,8.55,-2
45.14,-6.04,6.55,-3.18
45.18,-9.38,9.77,-1.02
45.22,-8.51,6.35,-1.88
45.26,-7.57,5.06,-1.33
45.31,-6.63,6.83,-1.45
45.35,-6.16,7.14,-1.53
45.39,-5.96,6.98,-0.78
45.43,-6.79,6.9,-0.59
45.47,-7.18,6.32,0.59
45.51,-6.98,5.69,1.22
45.56,-6.67,5.26,0.71
45.6,-5.92,6.04,0.2
45.64,-6.04,6.08,1.33
45.68,-8.47,6.63,2.28
45.72,-8.24,6,1.96
45.77,-6.86,4.75,2.55
45.81,-7.85,9.3,2.35
45.85,-6.59,7.77,0.75
45.89,-5.81,7.77,-0.27
45.93,-7.3,7.61,-6.86
45.97,-5.18,6.98,-2.24
46.02,-5.41,6.94,-2.98
46.06,-7.49,7.92,-2.71
46.1,-7.1,5.77,-2.39
46.14,-7.73,5.92,-2.35
46.19,-8,5.73,-1.96
46.23,-7.85,6.39,-1.41
46.27,-7.85,6.39,-1.33
46.31,-7.57,6.32,-1.02
46.35,-7.73,6.28,-1.02
46.4,-7.85,5.73,-0.63
46.44,-7.73,5.61,-0.78
46.48,-8,5.3,-0.63
46.52,-8,5.26,-0.39
46.56,-7.61,6,-0.63
46.6,-10.51,6,-1.65
46.65,-14.2,7.96,-3.8
46.69,-7.77,8.47,-3.22
46.73,-5.49,5.92,-3.22
46.77,-9.02,6.63,-1.84
46.81,-9.02,5.84,-2.24
46.86,-7.53,4.98,-1.69
46.9,-7.45,5.81,-2.24
46.94,-6.98,5.88,-1.73
46.98,-7.14,6.32,-1.41
47.03,-7.41,6.35,-1.49
47.07,-8.2,6.75,-0.82
47.11,-7.45,7.34,-0.67
47.15,-5.96,7.02,-0.12
47.19,-6.59,7.92,-0.27
47.24,-6,7.3,-0.04
47.28,-5.33,6.43,2
47.32,-7.18,5.49,2.16
47.36,-6.9,4.98,0.94
47.4,-6.39,7.49,1.73
47.44,-11.26,9.22,-3.37
47.49,-6.83,10.59,-3.26
47.53,-5.81,6.86,-3.96
47.57,-8.08,5.45,-2.28
47.61,-7.53,6.04,-2.43
47.65,-6.71,6.83,-2.16
47.7,-7.49,6.2,-2.47
47.74,-7.92,5.84,-1.92
47.78,-8.32,6.08,-1.57
47.82,-8.16,5.77,-1.45
47.87,-7.73,5.84,-1.57
47.91,-8.08,5.96,-1.22
47.95,-7.85,6.47,-1.53
47.99,-7.96,6.28,-1.26
48.03,-8.28,5.57,-0.9
48.08,-8,5.77,-1.06
48.12,-8.32,5.26,-1.02
48.16,-8.51,5.1,-0.55
48.2,-8.75,5.1,-0.35
48.24,-9.49,4.08,-1.06
48.28,-11.45,6.28,-2.55
48.33,-8.9,10.94,-2.9
48.37,-7.85,8.87,-3.02
48.41,-7.1,6.47,-2.51
48.45,-6.04,7.06,-1.57
48.49,-8,7.69,-1.14
48.54,-8.04,7.34,-0.98
48.58,-6.24,7.14,-0.98
48.62,-5.73,7.53,-0.35
48.66,-5.33,8.39,-0.98
48.71,-7.37,5.69,2.16
48.75,-6.24,4.94,2.24
48.79,-6.55,6.24,2.04
48.83,-6.86,6.2,0.94
48.87,-5.77,5.96,-0.08
48.91,-6.43,6.08,1.69
48.96,-6.94,6.12,1.29
49,-8,6.51,1.84
49.04,-6.94,5.92,2.67
49.08,-9.49,10.79,1.77
49.12,-8.59,9.96,-0.35
49.17,-5.88,7.96,-0.86
49.21,-6.9,6.63,-5.3
49.25,-6.59,7.1,-2.55
49.29,-4.39,8.08,-2.9
49.33,-7.22,7.45,-3.06
49.38,-7.45,6.47,-2.75
49.42,-8.08,5.49,-2.43
49.46,-8.51,6.16,-2.08
49.5,-7.57,5.88,-1.69
49.54,-7.45,5.65,-1.92
49.59,-8.08,5.88,-2.2
49.63,-9.06,5.37,-1.53
49.67,-8.9,4.63,-1.14
49.71,-8.51,4.79,-0.82
49.75,-8,5.18,-0.71
49.8,-8.59,4.94,-0.59
49.84,-8.9,5.84,-0.86
49.88,-8.47,4.94,-0.94
49.92,-11.85,8.63,-3.06
49.96,-8.87,9.85,-3.61
50.01,-6.98,7.34,-4.55
50.05,-5.53,7.37,-3.37
50.09,-6.98,7.3,-2.28
50.13,-9.57,7.77,-1.57
50.17,-7.1,6.63,-1.18
50.22,-6.12,6.86,-0.35
50.26,-5.77,7.88,-1.02
50.3,-6.59,7.3,-0.82
50.34,-6.86,6.32,-0.47
50.38,-7.34,6.55,0.47
50.43,-7.18,6.55,0.16
50.47,-6.12,5.88,0.2
50.51,-6.24,6.08,0.67
50.55,-6.35,6,1.65
50.59,-7.92,5.69,1.96
50.63,-7.26,5.57,1.88
50.68,-6.98,5.3,1.49
50.72,-10.12,14.36,0.08
50.76,-7.53,7.77,-0.31
50.8,-4.43,6.55,-2.43
50.84,-6.32,8.98,-3.53
50.88,-6.71,6.67,-2.24
50.93,-6,7.73,-2.51
50.97,-6.9,8.28,-2.12
51.01,-7.3,6.47,-2.63
51.05,-8.24,6.28,-2.2
51.1,-7.77,6.08,-2.43
51.14,-7.65,6.24,-2.71
51.18,-7.88,6.51,-2.59
51.22,-7.85,6.51,-2.79
51.26,-8.51,5.61,-2.35
51.31,-9.49,4.94,-1.92
51.35,-9.53,4.86,-1.41
51.39,-8.94,4.55,-1.02
51.43,-8.71,5.02,-1.18
51.47,-8.28,4.98,-0.55
51.51,-8.39,5.22,-0.35
51.56,-8.39,5.73,-0.51
51.6,-8.2,5.33,-1.33
51.64,-8.9,7.81,-3.06
51.68,-7.57,7.45,-2.86
51.72,-8.43,5.45,-2.86
51.77,-7.88,7.53,-3.18
51.81,-7.02,7.14,-2.9
51.85,-6.9,5.73,-2.47
51.89,-8.43,7.34,-1.8
51.94,-8.12,7.34,-0.71
51.98,-7.61,6.67,-1.26
52.02,-6.63,7.06,-1.65
52.06,-6.47,7.81,-1.41
52.1,-6.71,7.06,-1.37
52.15,-6.79,6.63,-0.9
52.19,-7.34,6.67,-0.43
52.23,-7.18,6.79,-0.04
52.27,-6.86,6.63,0
52.31,-7.14,6.75,0.31
52.35,-6.55,6.35,0.35
52.4,-6.32,6.75,0.94
52.44,-6.24,6.63,0.9
52.48,-5.81,6.2,1.06
52.52,-5.84,5.81,0.86
52.56,-7.61,10.9,-0.35
52.6,-9.14,9.06,-0.43
52.65,-5.96,4.59,-2.31
52.69,-6.86,7.77,-1.73
52.73,-7.65,6.9,-2.04
52.77,-7.22,6.9,-2.51
52.81,-6.94,7.69,-2.28
52.86,-7.14,6.79,-2.43
52.9,-7.65,6.55,-1.88
52.94,-7.81,6.63,-1.84
52.98,-7.53,6.55,-1.61
53.02,-7.85,6.28,-1.45
53.07,-7.88,6.39,-1.22
53.11,-8,6.35,-1.33
53.15,-7.85,6.55,-1.18
53.19,-7.69,6.43,-0.55
53.23,-7.96,6.04,-0.78
53.28,-7.77,6.32,-0.82
53.32,-8.08,6.43,-1.22
53.36,-7.88,6.2,-1.61
53.4,-7.77,6.71,-1.84
53.44,-7.18,7.18,-1.77
53.49,-7.3,6.55,-1.73
53.53,-7.49,6.63,-1.84
53.57,-7.65,6.75,-1.69
53.61,-7.53,6.86,-1.69
53.65,-7.49,6.75,-1.49
53.7,-7.45,6.67,-1.49
53.74,-7.53,6.71,-1.45
53.78,-7.45,6.71,-1.49
53.82,-7.49,6.75,-1.45
53.86,-7.61,6.63,-1.53
53.91,-7.57,6.71,-1.61
53.95,-7.61,6.59,-1.57
53.99,-7.57,6.75,-1.37
54.03,-7.45,6.63,-1.49
54.07,-7.41,6.79,-1.49
54.12,-7.45,6.83,-1.61
54.16,-7.45,6.71,-1.49
54.2,-7.45,6.79,-1.53
54.24,-7.49,6.75,-1.57
54.28,-7.45,6.75,-1.49
54.33,-7.49,6.75,-1.45
54.37,-7.37,6.71,-1.45
54.41,-7.53,6.79,-1.57
54.45,-7.53,6.79,-1.65
54.49,-7.53,6.75,-1.49
54.54,-7.49,6.9,-1.49
54.58,-7.53,6.71,-1.49
54.62,-7.45,6.75,-1.53
54.66,-7.45,6.83,-1.53
54.7,-7.45,6.79,-1.57
54.75,-7.49,6.83,-1.65
54.79,-7.49,6.71,-1.61
54.83,-7.49,6.83,-1.61
54.87,-7.45,6.79,-1.41
54.91,-7.45,6.79,-1.65
54.96,-7.45,6.83,-1.57
55,-7.49,6.79,-1.53
55.04,-7.53,6.83,-1.61
55.08,-7.53,6.75,-1.57
55.12,-7.53,6.63,-1.49
55.17,-7.57,6.71,-1.57
55.21,-7.49,6.75,-1.57
55.25,-7.49,6.86,-1.65
55.29,-7.57,6.71,-1.65
55.33,-7.53,6.75,-1.61
55.38,-7.53,6.75,-1.61
55.42,-7.53,6.67,-1.65
55.46,-7.57,6.86,-1.49
55.5,-7.57,6.75,-1.61
55.54,-7.45,6.75,-1.57
55.58,-7.53,6.75,-1.61
55.63,-7.53,6.83,-1.57
55.67,-7.57,6.79,-1.57
55.71,-7.49,6.79,-1.45
55.75,-7.53,6.75,-1.49
55.79,-7.57,6.67,-1.49
55.84,-7.53,6.75,-1.49
55.88,-7.57,6.71,-1.49
55.92,-7.53,6.83,-1.49
55.96,-7.53,6.79,-1.49
56.01,-7.41,6.71,-1.53
56.05,-7.53,6.71,-1.57
56.09,-7.49,6.75,-1.57
56.13,-7.41,6.79,-1.49
56.17,-7.49,6.63,-1.57
56.22,-7.49,6.67,-1.57
56.26,-7.53,6.75,-1.49
56.3,-7.49,6.75,-1.45
56.34,-7.49,6.79,-1.49
56.38,-7.61,6.71,-1.45
56.42,-7.53,6.79,-1.49
56.47,-7.49,6.71,-1.33
56.51,-7.49,6.75,-1.49
56.55,-7.45,6.67,-1.45
56.59,-7.49,6.79,-1.53
56.63,-7.53,6.75,-1.53
56.68,-7.53,6.79,-1.61
56.72,-7.49,6.79,-1.49
56.76,-7.49,6.71,-1.53
56.8,-7.53,6.79,-1.49
56.85,-7.49,6.67,-1.57
56.89,-7.49,6.75,-1.53
56.93,-7.57,6.67,-1.53
56.97,-7.53,6.79,-1.57
57.01,-7.53,6.75,-1.41
57.06,-7.53,6.83,-1.53
57.1,-7.45,6.83,-1.53
57.14,-7.57,6.75,-1.65
57.18,-7.57,6.71,-1.45
57.22,-7.57,6.75,-1.53
57.26,-7.53,6.75,-1.49
57.31,-7.57,6.75,-1.37
57.35,-7.49,6.75,-1.45
57.39,-7.45,6.71,-1.57
57.43,-7.53,6.67,-1.61
57.47,-7.53,6.63,-1.57
57.52,-7.53,6.71,-1.49
57.56,-7.45,6.79,-1.53
57.6,-7.53,6.71,-1.53
57.64,-7.49,6.75,-1.61
57.69,-7.53,6.86,-1.57
57.73,-7.49,6.83,-1.61
57.77,-7.49,6.79,-1.57
57.81,-7.53,6.83,-1.57
57.85,-7.49,6.83,-1.61
57.9,-7.57,6.75,-1.53
57.94,-7.53,6.67,-1.61
57.98,-7.53,6.71,-1.53
58.02,-7.53,6.75,-1.57
58.06,-7.57,6.71,-1.53
58.1,-7.61,6.63,-1.57
58.15,-7.45,6.75,-1.61
58.19,-7.81,6.86,-1.77
58.23,-7.57,7.14,-2.08
58.27,-7.37,7.06,-2.12
58.31,-7.22,7.02,-1.61
58.36,-7.14,6.94,-1.84
58.4,-7.3,6.9,-1.69
58.44,-7.49,6.9,-1.69
58.48,-7.57,6.83,-1.69
58.53,-7.57,6.75,-1.65
58.57,-7.73,6.63,-1.61
58.61,-7.61,6.43,-1.45
58.65,-7.81,6.59,-1.45
58.69,-7.77,6.43,-1.49
58.74,-7.73,6.55,-1.41
58.78,-7.77,6.55,-1.49
58.82,-7.61,6.47,-1.37
58.86,-7.69,6.63,-1.61
58.9,-7.57,6.59,-1.45
58.94,-7.49,6.75,-1.45
58.99,-7.37,6.83,-1.57
59.03,-7.45,6.9,-1.8
59.07,-7.88,7.41,-2.71
59.11,-7.49,6.79,-1.45
59.15,-7.45,6.83,-1.53
59.2,-7.57,6.79,-1.57
59.24,-7.45,6.79,-1.53
59.28,-7.45,6.67,-1.53
59.32,-7.53,6.79,-1.49
59.37,-7.53,6.71,-1.49
59.41,-7.41,6.67,-1.61
59.45,-7.26,6.35,-1.26
59.49,-7.49,6.75,-1.49
59.53,-7.57,6.67,-1.73
59.58,-7.53,6.75,-1.65
59.62,-7.61,6.83,-1.65
59.66,-7.45,6.75,-1.61
59.7,-7.49,6.75,-1.49
59.74,-7.57,6.63,-1.53
59.78,-7.57,6.67,-1.57
59.83,-7.57,6.63,-1.61
59.87,-7.49,6.75,-1.69
59.91,-7.53,6.71,-1.65
59.95,-7.53,6.71,-1.57
59.99,-7.53,6.71,-1.73
60.04,-7.57,6.71,-1.61
60.08,-7.61,6.63,-1.57
60.12,-7.57,6.63,-1.61
60.16,-7.61,6.75,-1.65
60.21,-7.57,6.67,-1.73
60.25,-7.53,6.79,-1.73
60.29,-7.57,6.79,-1.69
60.33,-7.45,6.63,-1.73
60.37,-7.45,6.79,-1.69
60.42,-7.41,6.59,-1.73
60.46,-7.53,6.75,-1.77
60.5,-7.53,6.67,-1.65
60.54,-7.53,6.67,-1.73
60.58,-7.53,6.63,-1.8
