NAME:,run_2_1.csv,,
EXPERIMENT TIME:,22-05-22 20:16,,
ACTIVITY TYPE:,Running,,
COUNT OF ACTUAL STEPS,163,,
   ,,,
Time [sec],ACC X,ACC Y,ACC Z
516.699,3.53,0.43,6.43
516.735,4.86,2,7.34
516.772,4.98,3.18,9.18
516.808,2.47,5.3,13.61
516.846,1.22,10.04,14.04
516.884,-1.1,9.61,16.87
516.923,-1.88,3.49,16.79
517.035,1.45,-3.22,0.43
517.073,2.47,-3.8,-4.51
517.111,3.61,-2.39,-4.71
517.15,2.55,-2.82,8
517.188,11.85,-2.2,16.48
517.227,20.01,-0.75,20.01
517.267,6.35,11.18,20.01
517.305,-0.55,6.08,11.96
517.344,-2.94,6.2,6.75
517.381,-5.96,8.36,-2.67
517.42,1.49,-1.1,-6.28
517.458,3.41,-2.2,-0.98
517.497,2.94,-3.06,0.12
517.534,-0.82,-0.08,0
517.573,2.98,0.27,8.55
517.684,-0.31,11.1,20.01
517.724,-2.71,6.12,2.9
517.761,4.79,-0.98,11.73
517.8,4.24,-5.57,12.63
517.839,1.73,-1.53,-4.59
517.877,2.08,-3.8,-9.65
517.916,3.3,-2.43,1.06
517.953,11.26,-5.37,13.89
517.993,8.43,10.43,15.73
518.031,-4.71,10.04,2.59
518.07,-0.08,9.81,18.87
518.108,1.49,8.9,12.75
518.146,-2.67,3.06,0.16
518.183,-1.88,2.39,-3.06
518.335,0.04,2.2,-1.02
518.373,-4.67,6.59,20.01
518.411,-9.45,-0.86,14.98
518.451,-3.61,7.57,8.79
518.489,4,1.1,4.67
518.525,4.71,-1.65,12.59
518.564,-0.98,-1.92,3.92
518.602,1.45,-2.08,-5.18
518.641,4.51,-3.73,-4.59
518.679,5.3,-2.75,-0.04
518.718,2.43,-0.04,10.12
518.756,14.55,6.2,16.59
518.795,9.1,-0.55,20.01
518.833,-2.08,8.9,11.81
518.984,-2.04,-2.75,-4.9
519.024,1.61,-1.61,-0.67
519.063,-0.82,4.12,-0.55
519.101,20.01,-12.51,20.01
519.142,-15.46,9.14,19.14
519.181,6.98,4.47,18.32
519.219,1.29,3.57,13.45
519.256,3.77,0.47,15.06
519.294,1.96,0.43,3.53
519.33,-2.24,0.04,3.33
519.368,3.22,-4.12,-6.28
519.406,6.9,-4.9,-1.8
519.445,3.45,1.65,4.35
519.6,6.47,2.98,18.2
519.638,-1.1,5.88,11.38
519.676,-5.06,3.22,1.41
519.714,-1.18,0.12,-4.04
519.752,-1.92,-2.86,-7.77
519.792,5.84,-0.9,4.28
519.829,-2.16,4,-0.9
519.868,18.4,-20.01,20.01
519.908,-15.81,20.01,7.26
519.948,6.86,9.3,13.85
519.985,-0.82,4.08,17.57
520.024,7.41,2.82,16.12
520.061,5.73,1.61,7.1
520.25,-2.63,-0.59,6.55
520.289,17.69,4.63,20.01
520.327,17.77,-7.69,20.01
520.367,-2.82,5.37,6.86
520.404,3.06,5.22,4.79
520.441,-3.22,4.51,4.04
520.478,-2.94,1.65,-2.51
520.517,0.98,-2.43,-3.53
520.555,1.61,-3.45,-3.14
520.594,-2.47,2.71,3.18
520.631,9.92,-11.22,15.53
520.671,-7.34,8,6.32
520.9,0.55,-1.96,-2.59
520.939,3.96,-4.94,-3.61
520.977,1.26,0.43,0.08
521.014,-0.2,-4.79,5.45
521.052,20.01,2.35,20.01
521.091,14.4,-1.22,20.01
521.13,12.36,0.59,13.89
521.169,-1.88,8.63,-2.16
521.207,-0.98,3.26,4.67
521.245,2.71,-0.31,-0.9
521.283,-2.63,-2.59,-9.22
521.323,0.67,-0.27,1.84
521.36,-2.43,4.94,-0.78
521.399,20.01,-20.01,20.01
521.519,-0.43,0.9,10.08
521.557,7.26,-2.98,17.26
521.596,6.47,-2.2,8.98
521.633,2.28,0.24,-7.22
521.671,0.78,-2.31,-7.96
521.709,3.1,-4,-4.12
521.748,-0.59,1.18,5.57
521.785,20.01,2.67,20.01
521.824,15.65,-6.9,20.01
521.864,17.97,2.43,14.98
521.902,2.16,5.57,6.79
521.939,-2.82,5.69,7.02
521.976,-2.51,1.57,-1.26
522.015,0.86,-2.12,-4.63
522.053,0.51,-2.51,-1.65
522.092,-2.12,2.47,1.02
522.129,3.96,-9.18,20.01
522.168,-16.4,12.51,5.69
522.207,-20.01,20.01,-7.88
522.248,1.84,2.43,12.28
522.285,7.77,-1.92,17.77
522.324,4.59,-1.61,10.67
522.363,-2.47,-3.69,3.33
522.401,-2.51,-2.9,-6.79
522.441,4.63,-2.51,0.59
522.478,-2,0.82,6.35
522.516,20.01,1.33,20.01
522.554,17.93,2.24,18.59
522.593,19.85,2.35,19.61
522.631,2.08,1.77,14
522.669,-2,4.55,3.45
522.821,-5.92,3.8,0.12
522.858,18.44,-7.53,20.01
522.898,-20.01,19.26,-1.29
522.939,2.2,17.5,1.61
522.976,5.88,2.47,8.87
523.013,4.28,-1.22,18.08
523.051,0.82,-0.9,6.83
523.089,-1.84,0.08,-4.08
523.127,2.2,-3.84,-4.94
523.166,3.73,-3.57,-0.9
523.204,2.31,-1.06,6.71
523.242,20.01,-2.24,20.01
523.281,14.47,-5.57,20.01
523.435,2,-1.06,1.65
523.473,-1.37,-1.8,-6.63
523.513,2,-1.18,2.98
523.55,-1.96,4.79,-1.77
523.588,20.01,-15.93,20.01
523.629,-20.01,-18.44,20.01
523.671,-2.08,6.55,13.3
523.709,7.65,-1.45,17.22
523.748,3.06,-2.28,19.06
523.786,1.37,0.63,2.63
523.823,-3.57,-0.51,-3.88
523.863,0.27,-3.84,-10.04
523.902,11.38,-4,8.16
523.941,2.55,-5.96,5.81
523.978,18.95,7.02,20.01
524.092,8.39,2,13.1
524.129,-0.55,5.1,4.43
524.167,-3.06,2.47,-4.31
524.205,-0.98,-1.26,-4.79
524.245,-0.08,-0.78,0.63
524.283,-4.28,3.92,0.94
524.321,20.01,-19.26,20.01
524.361,-5.02,4.98,0
524.399,-1.92,15.26,13.73
524.439,5.96,0.55,11.73
524.476,4.79,0.59,16.71
524.514,2.55,1.41,6.16
524.55,-2.9,0.9,0.63
524.588,1.06,-4.94,-5.69
524.7,9.41,-3.1,10.71
524.739,4.16,9.41,17.97
524.776,-13.3,16.12,4.51
524.816,-1.88,8.04,18.63
524.854,0.47,7.06,2.71
524.891,-0.78,2.2,1.69
524.928,2.2,-0.94,-2.79
524.967,-2.35,-2.28,-5.41
525.006,1.57,1.37,2.24
525.043,17.18,-4.98,20.01
525.082,-7.18,6.32,9.22
525.12,-20.01,20.01,0.63
525.159,6.2,4.39,18.28
525.197,4.67,3.84,15.46
525.234,3.37,2.24,11.3
525.272,-1.26,-1.18,6.28
525.388,2.86,-0.12,-1.41
525.427,2.39,-1.65,10.32
525.466,17.53,3.73,20.01
525.504,13.73,1.96,20.01
525.543,20.01,-0.63,20.01
525.582,-1.26,6.39,3.88
525.62,-2.24,3.3,2.79
525.657,2.43,-0.9,-0.75
525.696,-0.98,-2.04,-5.81
525.735,-0.98,3.37,-0.16
525.774,1.14,-5.26,0.04
525.811,2.28,-8.79,20.01
525.85,4.98,0,0
525.886,-1.45,8.94,17.02
526,2.75,-0.08,-0.59
526.039,-0.94,-0.43,5.77
526.077,1.49,-5.18,-9.18
526.116,4.35,-3.65,-1.92
526.154,-2.94,-0.04,5.18
526.193,20.01,6.86,20.01
526.231,19.1,-4.39,13.85
526.271,13.69,3.06,18.48
526.309,2.35,3.73,5.61
526.346,-2.75,4.35,5.37
526.383,-0.31,0.9,-1.49
526.422,1.65,-1.57,-5.69
526.46,1.69,-2.94,0.2
526.498,-1.92,1.57,0.47
526.654,3.41,1.26,11.3
526.692,6.16,0.86,13.73
526.729,4.55,2.08,10.04
526.767,-1.8,0.47,4.28
526.804,-2.28,-5.61,-10.36
526.845,7.45,-4.79,3.77
526.882,1.1,2.71,2.16
526.919,20.01,-3.41,20.01
526.958,0.2,13.73,12
526.997,-19.73,20.01,2.75
527.036,1.8,6.79,18.28
527.074,-0.04,6.24,5.96
527.111,-1.02,0.9,1.84
527.149,1.18,-1.33,-6.28
527.304,-17.5,-13.73,20.01
527.346,0.08,12.91,13.22
527.384,1.22,2.71,15.38
527.422,2.75,0.63,14.16
527.459,2.59,0.63,2.67
527.496,0.12,-0.16,1.41
527.533,-0.12,-5.1,-8.59
527.573,7.02,-4.79,4.98
527.61,1.29,-1.14,3.57
527.648,5.69,-4.35,8
527.685,4.51,11.96,8.16
527.723,-20.01,20.01,10.87
527.764,-1.41,7.14,18.12
527.802,-1.18,6.39,6.39
527.916,1.57,-4.12,-6.55
527.954,0.67,1.29,3.06
527.991,-2.08,5.69,4.12
528.028,-5.22,-3.22,20.01
528.068,-5.02,4.98,12.16
528.106,-1.02,10.75,15.97
528.146,3.49,-1.53,15.65
528.184,2.94,-0.51,12.04
528.223,1.88,1.37,7.14
528.259,1.14,0.16,-0.94
528.297,-0.16,-6.28,-11.45
528.337,7.45,-3.65,1.33
528.375,-0.71,3.84,3.73
528.412,20.01,7.69,20.01
528.451,15.61,-5.18,20.01
528.567,-1.49,3.02,6.9
528.604,-0.55,-0.12,-3.61
528.644,-0.9,-0.24,-6.63
528.683,3.65,-2.86,0.86
528.721,-1.33,2.24,1.22
528.758,18.87,-11.45,20.01
528.799,-20.01,20.01,-2.2
528.84,3.18,12.59,-13.42
528.879,6.71,-2.35,6.28
528.917,3.1,0.55,16.4
528.954,3.02,0.39,8.2
528.991,-6.55,-7.14,16.59
529.03,-2.12,-1.96,0.86
529.069,4.86,-3.1,-10.08
529.221,4.86,2.67,20.01
529.258,-5.22,12.98,20.01
529.298,-2.24,6.71,6.28
529.335,-4.31,5.14,1.61
529.373,1.61,0.24,-4.75
529.41,3.73,-5.41,-7.81
529.449,0.78,0.47,1.33
529.485,-3.14,5.26,4.82
529.523,20.01,-20.01,20.01
529.564,-18.55,20.01,14.67
529.604,-4.86,14.36,16.51
529.644,5.81,0.55,9.02
529.68,5.18,0.9,11.18
529.718,2.12,-1.29,8.83
529.831,2.63,-3.06,-7.02
529.87,-5.02,2.35,1.1
529.907,11.92,-10.36,20.01
529.948,8.9,9.38,-3.73
529.985,-20.01,20.01,-7.77
530.026,1.29,2.04,16.16
530.064,-5.22,4.71,5.73
530.101,-7.61,4.63,-3.92
530.14,5.3,-3.8,-4.35
530.178,3.18,-0.51,-0.82
530.217,0.27,1.57,0.04
530.253,15.97,-6.75,20.01
530.293,3.49,0.31,12.16
530.33,-0.82,6.55,-3.8
530.369,5.02,-0.39,11.26
530.483,0.04,-2.28,0.67
530.521,0.82,-3.77,-6.59
530.559,2.39,-3.77,-2.71
530.598,1.61,-0.67,6.67
530.635,20.01,3.1,20.01
530.674,17.5,-8.39,20.01
530.714,14.91,-0.75,18.24
530.753,-1.22,6.04,3.18
530.791,-5.69,2.94,3.41
530.828,-2.04,-0.16,-0.24
530.868,-0.9,-1.77,-6.47
530.907,2.86,0.39,4.16
530.944,4.04,8.08,0.2
530.98,-0.39,-8.12,20.01
531.095,2.12,3.45,13.96
531.132,5.61,-1.88,12
531.171,-0.35,1.06,1.49
531.208,-1.57,-2,-3.1
531.248,2.16,-5.57,-2.2
531.286,8,-3.53,5.41
531.324,4.79,3.22,-2.35
531.361,20.01,-1.53,20.01
531.401,12.04,-3.06,20.01
531.441,6.51,4.47,11.18
531.478,1.02,4.79,6.83
531.515,-5.18,3.33,2.9
531.552,2.67,-0.39,-3.22
531.591,3.69,-1.61,6.39
531.628,-0.51,0.08,-0.75
531.782,4.98,2.79,13.93
531.82,0.98,-0.12,17.22
531.858,6.59,-3.41,12.83
531.897,2.55,-1.77,-1.69
531.935,-2.86,-3.73,-12.12
531.976,1.18,-4.55,4.2
532.014,10.16,-3.92,0.43
532.052,-0.16,-1.96,-2.67
532.092,16.48,3.57,13.1
532.13,13.65,-3.3,8.47
532.169,19.93,2.55,20.01
532.207,3.1,2.31,1.84
532.244,-5.81,4.55,7.57
532.396,0.16,1.57,1.92
532.432,10.87,-6.67,11.45
532.472,-19.14,19.69,6.28
532.511,-16.04,9.45,-4.75
532.551,0.55,0.2,20.01
532.589,7.92,0.16,15.61
532.626,3.8,0,9.38
532.662,1.06,-1.88,1.41
532.7,-0.98,-7.26,-4.9
532.74,5.02,-2.04,-1.61
532.778,2.47,4.35,-0.75
532.816,10.63,-4.43,11.57
532.855,12.67,6.24,3.57
532.893,-20.01,20.01,7.81
533.046,1.53,-2.28,-5.49
533.084,2.67,-0.94,-3.14
533.123,1.61,1.53,-0.59
533.16,9.92,-15.77,15.49
533.2,-19.89,4.47,-2.31
533.24,-17.57,16.63,-5.73
533.28,3.14,0.59,20.01
533.318,10.67,1.41,17.1
533.356,3.61,0.04,9.53
533.393,-0.55,-3.3,-2.24
533.432,-0.55,-2.43,-1.29
533.472,2.63,0.75,-1.14
533.509,3.69,-1.33,2.35
533.547,20.01,-3.18,20.01
533.664,-1.92,6.08,8.87
533.701,-1.8,4.51,4.9
533.739,-1.22,1.57,1.26
533.776,-1.02,-2.82,-8.16
533.816,0.94,-1.41,-1.45
533.854,-1.49,5.3,1.26
533.892,20.01,-18.4,20.01
533.932,2.98,8.36,19.65
533.97,8.94,5.22,18.55
534.007,1.88,0.12,13.38
534.045,8.16,0.43,12.32
534.082,0.78,1.57,3.37
534.119,-2.2,0.2,-4.55
534.157,-0.67,-0.67,-3.1
534.313,-6.47,13.96,3.8
534.352,6.9,7.65,19.93
534.39,3.37,5.61,6.43
534.426,-1.96,1.29,0.63
534.464,1.02,-1.57,0.63
534.501,-2.94,-3.06,-7.1
534.541,-1.65,1.73,0.78
534.578,-2.16,7.18,-0.86
534.617,20.01,-20.01,20.01
534.657,-18.79,16.67,19.5
534.698,-9.89,17.69,20.01
534.737,3.53,4.47,16.59
534.775,11.3,-4.86,16.71
534.815,1.61,-0.51,2.94
534.967,0.59,-4.98,-1.26
535.005,14.44,-0.43,20.01
535.045,7.49,10,1.69
535.082,18.59,2,16.32
535.121,1.65,5.69,9.34
535.157,-4.71,3.84,3.41
535.195,-2.12,1.96,-3.65
535.233,2.94,-2.2,-1.1
535.272,1.57,-2.39,-1.18
535.31,0.47,0.12,3.02
535.347,7.49,-0.63,10.87
535.385,-17.3,10,15.46
535.426,-20.01,20.01,0.47
535.466,5.69,5.84,15.3
535.579,-0.78,-2,1.26
535.618,-0.86,-2.79,-6.83
535.657,4.98,-2.94,2.59
535.695,2.47,-0.51,1.02
535.732,2.47,-0.9,10.12
535.771,6.08,10.87,20.01
535.809,-20.01,20.01,10.12
535.85,-3.61,9.38,19.38
535.889,-0.47,5.02,7.06
535.926,-0.94,2.67,-0.04
535.965,0.2,-0.24,-7.26
536.003,1.02,-2.71,-5.77
536.042,4.43,-3.53,1.88
536.079,-2.43,2.35,0.98
536.117,20.01,-6.98,20.01
536.234,2.71,2.94,13.26
536.272,6.16,2.55,16.63
536.309,1.41,-0.04,5.3
536.347,-3.41,-1.41,0.78
536.385,-2.71,-4.31,-6.51
536.425,6.71,-4.39,0.43
536.462,2.86,-1.14,3.3
536.5,20.01,-1.69,20.01
536.54,15.1,-0.82,20.01
536.579,15.46,0.12,19.69
536.618,3.45,6.51,2.94
536.654,1.33,4.63,7.73
536.691,2.12,-0.27,-1.45
536.729,0.04,-1.37,-3.65
536.881,-7.45,6.2,20.01
536.92,-19.38,18.83,20.01
536.96,-2.98,12.2,-1.14
537,1.88,3.53,13.69
537.037,1.61,-1.77,10
537.076,2.43,-2.94,-3.22
537.115,4.28,-6.67,-1.65
537.153,7.45,-3.53,5.69
537.191,4.98,-2.55,6.28
537.228,4.16,14.83,16.87
537.267,-12.36,19.14,8.98
537.306,2.51,7.49,19.97
537.344,-0.94,8.24,6.32
537.381,-2.31,2.55,2.79
537.419,3.37,-1.26,-1.29
537.457,-2.39,-2.2,-10.9
537.498,0.2,-0.12,2.79
537.535,-1.1,8.79,-0.59
537.574,18.87,-20.01,20.01
537.615,6.12,6.35,20.01
537.652,-4.39,11.92,16.71
537.692,3.41,0.31,9.45
537.728,5.22,-0.08,14.16
537.767,3.73,-0.39,11.1
537.805,0.04,-1.61,-2.12
537.844,-1.8,-2.75,-6.83
537.883,3.22,-6.43,-2.12
537.922,7.06,-0.78,5.77
537.959,8.51,-2.59,9.45
537.997,3.61,13.49,16.79
538.035,-10.47,4.98,9.14
538.148,-1.69,0.71,1.88
538.185,0.16,-0.71,-6.28
538.224,-2.16,0.08,-4.51
538.262,2.51,-1.06,-0.82
538.301,1.45,6.67,0.71
538.337,9.85,-17.57,20.01
538.377,3.69,4.98,7.37
538.414,-11.41,15.77,-0.27
538.454,4.31,-3.1,9.34
538.492,3.14,-2.39,12.67
538.53,3.33,-0.59,2.28
538.568,2.04,-2.16,-4.28
538.606,2.67,-4.86,-3.77
538.645,3.1,-1.41,2.35
538.76,12.32,-11.57,20.01
538.801,0.08,4.47,18.63
538.839,-1.1,7.14,8.67
538.876,-1.26,3.84,1.65
538.914,0.78,0.71,-1.02
538.951,-2.86,0.9,-7.45
538.99,2.9,-4.39,-1.06
539.028,0.39,2.75,2.2
539.065,20.01,-12.75,20.01
539.105,-13.93,18.36,12.75
539.146,-18.59,17.81,-5.49
539.186,3.69,1.65,7.22
539.223,5.57,-2.28,12.28
539.261,4.94,-1.29,10.2
539.3,1.61,-0.39,1.02
539.337,-0.94,-3.1,-6.63
539.377,6.63,-5.69,0.2
539.414,-1.37,-2.12,2
539.453,14.98,-5.73,16.48
539.493,1.69,12.28,2.59
539.53,-20.01,20.01,-1.65
539.571,1.57,4.51,13.53
539.608,-2.04,3.53,7.96
539.646,-2.08,2.04,1.29
539.683,0.59,-0.27,-4.79
539.722,-0.12,-1.57,-5.92
539.761,-0.94,1.92,1.84
539.799,9.49,-8.32,10.08
539.837,-9.45,12.83,-0.27
539.877,-18.2,20.01,0.35
539.917,2.75,2.55,17.89
540.03,0.63,-0.24,4.12
540.068,-0.9,-0.94,-7.85
540.107,5.06,-5.88,-1.57
540.146,6.59,-3.18,1.49
540.183,9.73,-4.94,17.06
540.222,1.06,10.08,6.67
540.259,-6.32,17.65,12.16
540.299,3.84,3.1,8.59
540.335,0,3.26,5.37
540.372,0.2,0.2,0.24
540.408,-1.41,-2.43,-9.06
540.448,-0.63,-0.82,3.69
540.486,-4.31,3.37,1.45
540.524,12.08,-6.16,9.57
540.562,-13.89,14.2,-5.02
540.718,3.84,-2.12,6.24
540.755,0.12,-3.22,-1.29
540.794,-0.71,-4.71,-7.65
540.833,4.82,-0.27,2.86
540.871,2.98,-2.12,0.98
540.908,18.44,-2.94,18.75
540.948,11.65,3.77,13.61
540.986,-13.14,20.01,13.81
541.027,-1.02,6.98,6.59
541.065,-1.22,3.92,9.53
541.102,0,0.75,-0.82
541.14,-0.63,1.37,-15.73
541.179,4,-1.96,-1.8
541.218,3.06,3.77,6.2
541.334,-9.96,15.02,17.57
541.374,13.65,-2.71,15.1
541.414,2.59,1.45,14
541.451,-0.82,0.51,1.29
541.489,-3.1,-1.53,-3.37
541.528,6.28,-3.92,-1.37
541.567,5.37,-5.14,1.88
541.604,-0.59,-4.86,9.34
541.643,14.24,7.14,20.01
541.681,8.47,-2.35,-9.14
541.72,8.24,2.28,19.34
541.757,-0.16,6.98,7.69
541.795,-2.59,2.86,2.75
541.832,0.04,-2.47,-1.14
541.982,-7.37,0.94,20.01
542.021,4.98,0.59,4.98
542.057,-8.79,7.57,6.71
542.095,8.87,0.63,19.73
542.132,2.39,-0.27,15.3
542.171,-0.94,1.49,1.84
542.208,-4.63,-2.28,-9.45
542.248,7.49,-4.98,5.53
542.285,6.12,-1.49,-2.82
542.324,-8.2,-3.37,6.2
542.362,20.01,-3.61,20.01
542.402,-6,4.98,9.1
542.44,-1.45,14.87,-6.75
542.479,4.55,5.22,3.45
542.631,1.69,-2.12,1.18
542.669,0.67,2.59,2.82
542.705,20.01,-11.14,20.01
542.746,-20.01,16.24,4.67
542.785,2.47,11.1,8.94
542.823,1.37,4.08,14.71
542.86,6.47,-1.49,17.18
542.899,1.26,-1.22,10.08
542.937,-1.22,-0.24,0.27
542.976,-2.2,-1.96,-5.53
543.016,5.81,-3.37,4.67
543.053,2.79,-1.41,3.06
543.091,10.24,-8.43,18.36
543.13,8.43,5.73,8.12
543.245,-5.1,4.08,5.73
543.282,-4.94,2.71,-2.04
543.321,0,0.16,-12.83
543.359,0.31,-0.35,-5.3
543.398,0.12,-1.06,1.77
543.435,7.92,-5.49,18.75
543.474,-11.26,13.1,1.77
543.514,-20.01,20.01,20.01
543.554,5.3,-3.22,13.81
543.593,6.55,-5.88,14.95
543.631,6.39,-5.45,8.9
543.669,3.8,-2.63,2.82
543.706,-1.02,-2.31,-10.32
543.747,2.47,-0.94,2.67
543.784,3.1,-7.18,3.53
543.898,13.02,0.35,20.01
543.936,1.77,7.77,5.57
543.973,-2.35,4.51,4.79
544.01,-1.77,1.22,0.82
544.048,0.51,-0.94,-4
544.086,-1.73,-1.14,-7.85
544.126,1.02,1.33,1.77
544.162,0.04,8.79,-2.43
544.2,3.37,-20.01,20.01
544.24,-20.01,20.01,-20.01
544.281,-2.98,5.65,19.3
544.32,2.55,-0.98,16.2
544.358,6.75,-4.59,11.92
544.397,2.16,0.27,1.33
544.433,0.24,-3.73,-3.06
544.549,-2.94,-2.79,1.88
544.587,9.3,7.34,20.01
544.625,17.02,3.06,-5.96
544.663,1.77,-0.27,20.01
544.702,-3.45,4.31,8.04
544.74,-4.08,3.14,2.35
544.777,0.51,-1.41,-7.45
544.816,-0.08,-4.79,-3.57
544.855,0,1.06,-0.63
544.893,4.67,10.16,12.67
544.931,-7.02,5.57,6.35
544.969,-8.12,13.49,20.01
545.008,-2.9,4,9.06
545.046,1.53,-1.37,7.88
545.159,-2.94,-2.98,-12.87
545.2,4.98,-5.18,2.31
545.237,5.3,-0.12,-1.92
545.276,3.02,-1.26,0.08
545.313,20.01,-4.71,20.01
545.353,-10,14.98,9.57
545.393,1.8,2.79,20.01
545.43,-2.47,7.06,8.39
545.468,-0.67,1.92,0.16
545.505,3.45,-1.45,-2.35
545.544,-1.96,-4.08,-8.98
545.583,1.53,0.04,7.06
545.62,-2.9,6.12,2.04
545.657,20.01,-16.2,20.01
545.698,4.04,4.79,20.01
545.812,1.45,0.2,13.3
545.85,1.41,-1.65,5.3
545.887,1.92,-2.16,-0.16
545.926,0.12,-5.53,-8.04
545.965,10.79,-2.94,4.98
546.003,0.39,-1.14,3.02
546.041,20.01,3.88,20.01
546.079,12.71,-0.94,19.73
546.119,8.47,1.33,19.53
546.156,1.26,5.22,6.12
546.193,-3.26,3.57,6.2
546.23,-0.98,0.9,-1.06
546.269,0.47,-1.77,-7.41
546.307,2.79,-1.69,0.43
546.345,-0.9,3.3,4.47
546.382,20.01,-16.51,20.01
546.423,-12.51,19.97,14.67
546.463,19.61,-2.9,20.01
546.503,-1.06,2.9,7.22
546.541,4.86,-0.63,14.32
546.579,5.33,-2.51,7.45
546.617,2.2,-1.1,0.43
546.654,-0.55,-4.43,-9.1
546.694,6,-4.28,5.14
546.731,3.69,0.98,-2.35
546.769,6.94,0.12,19.42
546.806,6.35,9.53,2.94
546.843,-20.01,20.01,2.43
546.882,0.35,5.81,14.98
546.92,-1.49,4.47,7.57
546.957,-2.75,1.02,1.49
547.108,0.9,2.79,0.04
547.145,-10.79,4.79,7.69
547.183,-20.01,20.01,-15.73
547.225,-3.8,6.35,17.06
547.263,9.3,-3.8,15.38
547.302,6.63,-4,11.3
547.341,3.33,-0.63,1.1
547.378,-3.61,-3.92,-6.98
547.418,5.65,-1.69,1.77
547.455,4.71,1.41,-0.04
547.493,6.32,-1.26,10.75
547.531,2.75,8.32,11.89
547.569,-11.89,19.81,14.79
547.609,1.49,5.02,6.75
547.721,2.63,-2.9,-4.04
547.759,-1.33,-1.53,-6.16
547.799,-0.04,2.43,4
547.836,7.53,-5.41,10.98
547.875,-20.01,20.01,-4.2
547.916,14.24,6.86,6.28
547.953,6.08,-0.75,14.95
547.992,5.53,-2.67,18.01
548.03,2.63,-1.06,5.92
548.068,0.94,-0.75,-3.45
548.106,-4.31,-3.1,-12
548.147,5.26,-6.39,2.24
548.184,9.89,-2.59,2.82
548.222,10.08,-0.51,15.02
548.412,-1.49,0.43,0.63
548.45,0.43,-1.53,-7.45
548.488,1.37,-3.02,-3.06
548.527,0.35,2.31,0.35
548.563,-1.69,4.59,8.75
548.601,-9.57,-1.02,20.01
548.641,-20.01,19.69,0
548.68,-8.67,10.98,15.77
548.72,5.33,-4.43,10.04
548.758,2.75,-2.24,10.98
548.797,3.18,-1.45,-1.45
548.835,-0.31,-3.88,-10.04
548.876,9.41,-4.43,5.18
548.991,-12.16,-18.51,20.01
549.032,5.41,2.04,19.97
549.07,0.67,4.59,6.63
549.106,-4.82,4.94,-0.47
549.145,0.35,0.2,-0.51
549.182,1.14,-2.82,-5.33
549.221,0.55,-1.53,-0.2
549.259,0,10.59,1.61
549.297,13.18,-20.01,20.01
549.337,-16.59,14.75,3.84
549.377,-1.33,8.2,19.3
549.416,5.33,-4.39,8.24
549.453,5.69,-5.96,12.91
549.492,2.31,-2.63,1.06
549.529,-0.24,-1.84,-7.22
549.681,2.51,15.49,13.69
549.72,-20.01,20.01,-2.47
549.76,-1.92,4.63,18.28
549.799,-1.33,4.71,5.26
549.836,-4.04,2.47,1.57
549.874,0.82,-0.31,-3.18
549.912,-0.94,-2.71,-10.55
549.953,4.59,0.75,9.1
549.99,13.77,-4.51,20.01
550.029,-20.01,20.01,-5.33
550.07,12.75,17.3,6.79
550.108,5.84,0.2,11.45
550.146,9.77,-7.53,19.77
550.184,-0.47,-2.55,6
550.223,-1.14,-1.53,-4.98
550.262,4,-5.3,-2.31
550.301,8.51,-4.08,0.35
550.338,-4.12,-4.28,2.75
550.377,20.01,1.8,20.01
550.416,12,0.12,6.43
550.453,-0.98,4.39,20.01
550.492,-1.57,6.32,2.55
550.529,-2.59,3.57,0.43
550.567,2.12,-0.47,-0.55
550.605,1.26,-2.75,-7.85
550.644,2.12,-2.24,1.45
550.681,-3.45,5.18,0.75
550.719,20.01,-19.26,20.01
550.759,-9.69,19.89,10.75
550.799,6.86,2.94,17.97
550.912,5.14,-1.92,4.47
550.95,3.14,-2.12,-2.55
550.988,-1.33,-6.16,-10.55
551.029,4.86,-4.08,6.16
551.067,-9.38,0.86,4.35
551.104,20.01,-1.65,20.01
551.144,-1.26,2.71,2.24
551.181,-5.02,5.06,20.01
551.22,-1.18,6.63,7.69
551.257,-2.43,3.73,1.69
551.295,1.26,-0.39,-4.16
551.333,-2.2,-3.3,-11.38
551.374,1.84,-0.67,2.79
551.411,-0.71,7.49,3.41
551.449,-10.59,-0.08,20.01
551.569,5.37,-3.57,10.9
551.607,3.41,-3.61,10.24
551.646,3.1,-0.94,-1.96
551.684,-3.45,-3.18,-12.55
551.725,8.43,-4,6
551.762,6.86,-2.16,3.02
551.8,6.04,-1.49,1.37
551.837,6.9,9.02,8.59
551.874,-6.08,16.71,16.63
551.913,-1.29,5.1,4.51
551.951,-3.22,4.47,3.22
551.988,-2.51,1.65,0.78
552.026,1.61,-1.02,-5.61
552.065,-0.24,-2.75,-9.53
552.217,-2.86,18.79,2.04
552.255,-6.35,10.32,13.1
552.295,3.49,-4.24,4.16
552.332,6.32,-6.35,10.83
552.371,3.22,-1.29,2.31
552.408,-2.63,-3.22,-10.63
552.449,4.82,-4.16,4.59
552.486,-2.82,-9.06,4.28
552.525,20.01,0.24,20.01
552.563,0,0,3.88
552.6,-5.06,-4.2,16.48
552.64,-1.61,7.02,1.45
552.677,-3.06,4.63,3.8
552.715,-0.75,0.16,-0.27
552.831,-2.43,8.08,-1.84
552.87,20.01,-20.01,20.01
552.91,-7.18,10,-5.02
552.95,-8.04,0.86,8.2
552.987,5.84,-4.12,4.67
553.025,10.2,-7.57,19.14
553.065,0.16,-2.94,6.63
553.102,-0.75,-3.37,-5.81
553.142,-1.69,-0.9,-2.9
553.181,8.63,-3.06,3.96
553.219,2.75,-0.86,-0.47
553.257,11.41,17.06,19.34
553.297,-3.41,14.24,-2.71
553.336,-2.08,3.06,12.71
553.375,-2.51,7.06,6.08
553.487,-2.04,-5.06,-13.14
553.528,3.57,0.04,7.69
553.565,0.51,9.73,-2.86
553.602,-7.73,-3.92,20.01
553.642,14.98,-5.02,4.98
553.68,-9.14,12.24,-2.16
553.72,6.98,-6.9,4.67
553.757,4.79,-5.37,10.9
553.796,3.96,-3.3,4.31
553.833,-0.51,-2.43,-5.22
553.873,3.77,-1.22,0.51
553.91,3.41,-0.51,1.18
553.948,6.59,-4.55,11.77
553.986,12.98,8.79,1.45
554.024,3.69,-0.04,18.01
554.062,-4.16,5.53,4.43
554.1,-2.28,4.39,-0.82
554.138,1.45,0.82,-2.35
554.176,1.69,-3.14,-4.79
554.215,0.67,-3.57,-1.33
554.253,-2.51,3.49,-0.75
554.292,16.55,-4.51,19.93
554.331,-20.01,20.01,-10.28
554.373,5.45,10.63,11.22
554.411,5.57,1.33,7.02
554.448,11.85,-4.28,17.65
554.487,1.14,0.51,10.4
554.525,-2.31,-0.9,4.71
554.563,-1.73,-2,-5.65
554.603,4.35,-6,-2.9
554.642,8.79,-4.55,4.67
554.796,-2,4.31,8.43
554.833,-1.88,4.28,2.35
554.871,-2.43,1.14,2.75
554.908,-0.04,-2.67,-7.14
554.948,-0.2,-3.1,0.35
554.986,0.94,2.28,-0.39
555.024,19.85,-9.3,19.61
555.141,-3.33,7.22,20.01
555.179,6.75,-4.47,16.08
555.218,7.22,-3.53,9.65
555.255,3.65,-0.78,-0.71
555.408,20.01,-2.12,20.01
555.448,12.98,-0.71,20.01
555.487,2.08,2.08,18.99
555.525,-0.82,6,7.34
555.562,-3.37,3.8,2.28
555.6,-0.63,0.82,0.08
555.637,-2.63,-1.96,-10.63
555.678,4.82,-3.8,1.57
555.716,0.2,8.79,-0.27
555.753,12.47,-17.1,20.01
555.794,10,-5.02,4.98
555.832,-6.83,4.98,-3.26
555.871,1.14,-0.27,3.26
555.908,7.85,-5.49,15.97
555.947,2.24,-2.75,6.32
556.062,10,-3.96,5.53
556.101,8.36,-3.22,4.94
556.138,6.59,4.51,17.3
556.176,-20.01,20.01,18.08
556.217,-2.2,4.98,1.84
556.254,-0.27,4.67,3.73
556.292,-0.27,1.02,2.59
556.329,0.86,-1.14,-6.94
556.368,-2.98,-2.39,-4.9
556.407,-0.24,0.35,0.2
556.445,1.14,13.38,-0.43
556.483,-3.73,-12.08,13.42
556.524,-0.16,0,-5.73
556.562,-3.06,9.45,16.71
556.678,-1.53,-2.59,2.82
556.717,-3.65,-3.77,-10.47
556.757,1.77,-3.1,2.63
556.795,7.92,-1.45,2.67
556.832,4.24,-4,3.84
556.87,1.73,12,4.43
556.907,-8.9,19.77,8.71
556.946,-2.24,3.02,20.01
556.984,-1.29,5.65,5.26
557.022,-0.2,1.49,2.2
557.059,-0.08,-1.49,-6.94
557.099,-0.12,-4.63,-3.02
557.138,-2.24,3.02,0.39
557.176,18.63,-10.75,20.01
557.217,-8.87,16.24,3.37
557.331,7.37,-3.61,10.79
557.37,2.63,-2.47,7.96
557.407,1.41,0.12,-2.16
557.445,-2.47,-3.37,-8.71
557.484,8.24,-2.75,5.33
557.522,-0.39,-2.55,1.88
557.56,20.01,1.37,20.01
557.599,4.39,6.79,11.1
557.636,11.89,3.06,17.46
557.675,-1.41,5.1,-1.22
557.713,-0.35,4.43,2.67
557.751,1.73,-1.41,-1.26
557.79,-3.45,-2.24,-7.81
557.829,3.22,-4.59,2
557.867,-2.59,9.85,3.45
557.904,5.57,-20.01,20.01
557.944,0,-5.02,4.98
557.981,14.51,-1.53,16.75
558.021,3.18,1.65,7.49
558.057,8.83,-6.55,15.73
558.096,1.61,-1.26,1.06
558.133,-0.08,-2.59,-11.14
558.174,2.04,-4.75,-0.71
558.212,13.34,-3.65,9.38
558.251,-4.71,-5.61,-3.8
558.291,12.28,4.35,20.01
558.329,-20.01,20.01,7.65
558.369,-1.69,1.69,20.01
558.407,-1.45,5.65,-4.71
558.446,-2.2,0.71,3.53
558.483,-0.31,-1.92,-7.34
558.6,3.22,5.26,-5.77
558.637,-2.47,1.22,11.85
558.676,-20.01,20.01,-0.12
558.717,-0.27,6.75,20.01
558.755,8,-6.47,18.4
558.794,4.82,-2.31,8.28
558.831,0.78,1.02,-1.06
558.869,-8.47,-2.63,-15.34
558.909,2.82,-4.55,4.94
558.947,11.92,-4.35,3.3
558.985,5.96,2.51,-7.02
559.023,6.24,6.51,20.01
559.06,-20.01,20.01,-3.53
559.101,-0.98,3.37,16
559.214,1.49,-0.94,-6.12
559.253,-0.43,-2.86,-8.04
559.293,2.39,0.27,4.31
559.329,-5.02,3.41,1.18
559.367,-11.45,11.26,0.98
559.406,-20.01,20.01,-14.59
559.448,-2.28,4.35,20.01
559.486,8.67,-7.88,13.42
559.525,3.57,-5.81,9.61
559.562,2.2,-0.71,-4
559.601,-5.92,-1.73,-14.28
559.642,5.02,-2.24,6.43
559.679,9.69,-1.33,-2.71
559.718,20.01,6.12,3.45
559.755,-2.82,4.12,6.12
559.793,-2.71,10.75,17.73
559.832,0.98,6.16,1.45
559.869,-4.12,3.41,7.34
559.906,-0.31,0.16,2.28
559.944,-0.24,-2.2,-11.22
559.984,3.61,-4.51,-4.35
560.023,0.59,2.67,5.37
560.059,20.01,-19.69,20.01
560.1,-8.12,19.93,5.06
560.138,-2.31,-3.22,6.98
560.177,1.22,3.26,7.77
560.213,6.79,-6.24,14.98
560.252,3.84,-4.94,5.69
560.29,1.06,-2.47,-4.2
560.328,-1.73,-1.49,-8.28
560.368,6.63,-1.45,5.33
560.405,-3.8,-5.81,5.1
560.444,8.04,16.36,20.01
560.482,-1.26,5.65,13.3
560.521,1.02,0.82,19.42
560.558,-1.96,5.3,3.8
560.596,-3.06,3.14,-0.12
560.634,1.49,-2.2,-5.18
560.673,-0.82,-3.69,-6.04
560.712,2.39,0.55,-1.29
560.75,5.84,1.14,7.26
560.786,-3.02,-17.22,19.1
560.827,-20.01,17.1,-2.51
560.868,6.51,1.57,15.57
560.905,8.16,-4.12,14.12
560.944,7.73,-6.43,5.53
560.981,2.2,-0.94,-5.45
561.02,-10.12,3.22,-13.69
561.06,8.43,-2.51,6.71
561.174,15.89,-3.88,20.01
561.213,-7.61,8.51,20.01
561.252,-1.1,7.57,5.06
561.289,-2.98,4.55,3.26
561.327,1.8,-1.77,2.16
561.364,-2.43,-3.37,-10.16
561.405,-0.67,-2.31,-1.77
561.445,1.14,4.9,5.26
561.481,20.01,-20.01,20.01
561.522,20.01,-7.85,20.01
561.561,3.41,5.37,12.47
561.599,2.31,-0.59,5.81
561.636,9.92,-7.61,16.99
561.675,5.57,-5.61,6.16
561.792,10.12,-3.61,4.2
561.83,-5.02,-10.08,8.87
561.87,20.01,7.73,20.01
561.908,-15.81,9.41,18.01
561.948,-7.14,5.61,19.97
561.986,-3.41,6.43,3.61
562.024,-2.55,3.06,2.67
562.061,1.92,-1.65,-1.88
562.1,-3.02,-2.24,-8.87
562.139,0.82,0.67,1.37
562.176,9.14,20.01,-12.47
562.216,0.9,-9.73,17.34
562.254,-20.01,20.01,-7.45
562.295,-8.98,8.67,9.92
562.332,7.02,-6.59,10.36
562.448,-7.69,-0.71,-11.96
562.488,7.26,-2.98,4.67
562.526,7.57,-2.51,0.78
562.563,3.65,5.14,-4.82
562.601,15.3,3.26,20.01
562.639,-9.02,19.89,-1.57
562.679,-4.71,5.84,7.73
562.717,-3.49,5.69,4.12
562.754,0,-0.16,1.45
562.792,3.06,-2.55,-6.2
562.83,-4.67,-2.94,-9.77
562.87,1.57,0.51,3.41
562.906,-1.92,19.46,-2.39
562.946,-5.33,3.18,12.59
563.064,5.81,-5.81,11.89
563.103,7.53,-10.28,8.16
563.142,5.26,-3.53,-6.98
563.18,-3.49,-3.02,-5.81
563.22,-1.77,2.71,1.69
563.257,-7.18,-2.39,8.39
563.296,20.01,9.18,20.01
563.334,5.49,-13.85,20.01
563.374,-4.04,3.92,11.34
563.412,-5.06,6.9,-3.65
563.451,-1.49,3.77,-2.2
563.489,2.47,-2.2,-4.63
563.528,1.18,-3.18,-1.37
563.567,-0.31,1.61,-0.63
563.605,0.39,-3.8,2.24
563.723,-0.51,5.96,20.01
563.761,10.67,-8.67,20.01
563.801,3.3,-2.67,8.08
563.838,0.55,1.37,-2.94
563.876,-12.04,1.49,-15.81
563.917,5.96,-4.12,4.9
563.954,11.26,-3.41,1.92
563.993,1.18,3.88,11.34
564.03,8.63,8.24,0.35
564.067,14.32,-0.94,19.34
564.106,-2.28,5.77,-1.22
564.145,-0.67,5.14,1.77
564.182,-0.43,0.2,1.02
564.22,-2.9,-3.57,-10.98
564.376,8.55,-9.1,-7.02
564.414,-20.01,20.01,2.82
564.454,6.32,2.43,20.01
564.492,8.98,-5.88,13.57
564.53,12.4,-7.22,7.77
564.569,-0.12,0.55,-0.27
564.607,-8.55,3.33,-5.02
564.646,-0.98,-1.33,-0.43
564.685,9.92,-1.61,1.8
564.723,17.18,6.12,8.08
564.76,4.67,5.33,20.01
564.798,-1.26,7.22,14.83
564.836,-9.06,6.51,15.65
564.875,-1.33,-1.53,12.51
565.025,1.45,0.12,-4.59
565.062,0.47,3.92,7.06
565.099,8.63,0,15.65
565.136,-8.63,9.26,20.01
565.175,-5.02,2.35,0
565.212,3.3,7.96,7.34
565.249,6.43,2.43,9.18
565.285,6.2,-1.37,8.71
565.323,0.24,1.53,4.55
565.359,-2.82,2.47,3.18
565.397,0.35,0.55,3.65
565.433,3.92,1.8,8.28
565.47,1.1,2.98,10.32
565.507,-4.79,6.24,6.04
565.656,6.67,-1.18,3.84
565.694,10.98,3.14,15.97
565.732,8,-0.9,16.67
565.771,3.26,11.69,11.85
565.809,1.69,4.2,11.02
565.847,0.43,3.41,3.37
565.883,-1.37,2.24,2.12
565.921,-4.08,-6.04,-10.71
565.961,0.78,-0.78,-3.1
566,-0.67,1.29,1.29
566.037,7.69,-3.1,5.26
566.075,-18.08,18.08,-1.92
566.116,1.73,-9.38,10
566.154,9.77,-3.22,15.06
566.193,7.18,-3.84,18.24
566.307,-4.86,-0.98,-9.77
566.347,3.45,-3.77,-0.16
566.385,7.41,-2.31,0.55
566.423,8.2,2.67,10.79
566.46,6.94,10.67,6.63
566.498,-20.01,20.01,-6.12
566.538,0.78,3.53,10.9
566.576,0.63,3.22,1.49
566.612,-1.8,1.84,-0.67
566.651,1.22,-2.59,-5.3
566.689,-0.04,-2.82,-2.16
566.729,-2.35,3.14,-2.51
566.768,20.01,-11.38,20.01
566.808,1.65,11.96,18.95
566.847,6.63,13.42,8.9
566.884,-1.1,2.79,6.63
566.922,8.67,-9.73,20.01
566.96,5.41,-2.04,2.55
566.998,-1.41,-0.31,-10.79
567.038,0,-4.59,-4.08
567.077,7.85,-3.84,4.79
567.114,-2.16,-4.47,2.08
567.153,20.01,7.45,20.01
567.192,-10,8.04,4.98
567.23,-4.67,3.92,20.01
567.269,-1.65,5.57,4.28
567.306,-0.27,1.73,1.45
567.344,2.67,-2.28,-2.55
567.382,-2.59,-2.59,-9.53
567.422,1.61,-0.16,1.02
567.459,-3.69,8.12,-3.57
567.578,0.98,4.43,20.01
567.616,7.49,-5.61,16.55
567.654,5.73,-6.43,7.06
567.692,3.49,-1.69,-3.3
567.73,-5.06,-2.63,-8.28
567.77,5.14,-0.67,5.1
567.807,5.37,-6.28,9.22
567.845,20.01,1.06,20.01
567.883,4.98,-7.57,0
567.921,-3.49,0.08,20.01
567.959,-0.51,6.35,4.59
567.997,-2.51,2.2,0.82
568.034,1.53,-0.55,-2.47
568.073,-3.26,-2.16,-6.94
568.186,-16.24,7.73,9.06
568.225,-20.01,20.01,-16.75
568.267,-1.29,5.57,19.02
568.305,5.69,-3.92,15.97
568.344,5.26,-1.88,6.43
568.381,3.33,-1.33,1.8
568.419,-2.31,-2.71,-9.57
568.458,2.59,-4.51,1.77
568.496,5.88,-7.57,11.41
568.534,20.01,4.75,20.01
568.573,-14.75,20.01,4.94
568.612,-4.98,4.04,20.01
568.651,-1.26,5.88,4.55
568.688,-3.61,4.2,1.37
568.726,-1.22,1.41,-2.16
568.843,1.18,5.26,1.37
568.879,19.93,-19.97,20.01
568.92,-15.02,-7.69,14.98
568.96,-0.86,8.94,12.91
568.999,-0.16,-0.08,7.81
569.037,10.08,-6.55,13.65
569.077,4.24,0.47,0.16
569.113,-0.08,-0.82,-10.2
569.154,3.69,-5.06,0.39
569.192,11.81,-6.28,10.83
569.231,9.61,-3.06,3.49
569.269,5.14,4.75,12.59
569.306,16.48,-2.28,17.77
569.346,-1.92,4.16,0.08
569.458,-0.31,-1.49,-9.22
569.498,-1.96,-3.18,-0.04
569.537,1.33,3.65,1.29
569.574,20.01,-20.01,20.01
569.614,-12.91,15.49,11.92
569.655,-5.22,13.77,2.39
569.694,0.78,0.94,1.84
569.73,10.32,-6.35,17.61
569.77,2.79,-4.82,3.26
569.807,1.53,-3.88,-6.51
569.846,3.33,-4.31,-2.98
569.884,8.9,-2.08,10.75
569.923,20.01,3.37,20.01
569.961,-2.67,11.02,9.49
570,10.55,0.35,20.01
570.15,-3.02,-2.39,-10.83
570.191,1.53,-1.88,1.96
570.228,-1.18,3.37,2.94
570.266,20.01,-20.01,20.01
570.306,-13.38,15.49,8.63
570.346,0.08,6,-5.84
570.383,5.84,-1.92,9.1
570.421,7.3,-3.8,12.91
570.459,2.51,-1.53,2.75
570.497,0.24,-1.37,-11.61
570.536,1.61,-4.55,-1.57
570.575,12.75,-3.65,9.49
570.613,-11.53,-16.79,12.4
570.655,13.49,4.9,20.01
570.694,-16.91,20.01,-9.57
570.734,-1.37,5.84,10.79
570.773,-1.69,5.69,6.43
570.81,-6.67,2.28,5.22
570.848,0.71,0.35,-5.22
570.885,-6.43,-1.88,-17.46
570.926,7.49,-1.8,5.65
570.963,-3.92,-2.04,0.67
571.002,-0.86,-12.12,20.01
571.043,-20.01,20.01,-20.01
571.084,1.02,6.39,19.53
571.122,5.22,-1.92,17.85
571.16,8.28,-3.77,13.34
571.199,-2.12,1.06,1.84
571.236,-4.12,0.16,-6.75
571.275,2.39,-5.3,-0.12
571.429,15.73,-3.1,3.1
571.468,-3.26,7.3,16.71
571.506,0.82,8.98,9.06
571.543,-1.92,2.12,10.36
571.581,-1.37,0.24,-4.08
571.62,-2.51,-0.31,-9.45
571.659,7.41,-6.28,-1.73
571.698,0.9,14.47,1.57
571.735,6.67,-20.01,20.01
571.775,-20.01,20.01,20.01
571.816,6.2,1.88,9.38
571.852,5.18,-1.1,8.94
571.889,9.38,-5.33,16.08
572.044,4.51,-6.94,-3.3
572.082,4.67,-6.75,17.38
572.121,20.01,3.84,20.01
572.159,4.98,1.96,11.26
572.197,-20.01,19.14,1.29
572.236,3.26,5.06,0.47
572.273,-3.02,3.14,4.94
572.31,2.12,-2.35,1.06
572.348,-2,-4.67,-9.73
572.387,0.9,-0.31,2.31
572.425,-7.18,10.28,1.22
572.463,-2.67,-20.01,20.01
572.504,-2.16,-3.1,20.01
572.544,-6.28,10.08,8.36
572.699,-4.82,-2.75,-12.04
572.739,5.41,-2.9,2.71
572.777,1.14,-4.86,3.88
572.814,7.81,0.16,13.3
572.852,10.04,6.79,0.51
572.889,9.49,5.33,19.3
572.927,-2.04,6.94,1.65
572.964,-3.57,6.28,4.59
573.002,-1.22,0.39,3.65
573.039,1.69,-1.45,-7.77
573.078,0.39,-3.88,-6.24
573.117,1.69,4.31,0.63
573.153,20.01,-18.55,20.01
573.194,-19.42,20.01,10.32
573.31,8.71,-6.63,16.67
573.349,3.57,-6.75,9.02
573.386,1.84,-1.53,-1.57
573.425,-0.55,-1.02,-5.92
573.464,4.94,0.43,0.08
573.501,2.35,-1.22,4.75
573.538,3.61,9.53,9.73
573.575,-12.79,12,-2.04
573.616,-2.43,5.33,6.94
573.653,-0.94,7.06,5.41
573.691,-2.04,2.08,2
573.728,2.35,-0.78,-1.57
573.767,0.63,-4.47,-8.94
573.805,2.39,3.73,6.39
573.842,15.22,-7.22,20.01
573.881,-20.01,19.26,7.88
573.921,-4.55,10,-4.98
573.96,6.75,2.47,11.92
573.998,8.32,-5.22,20.01
574.036,0.94,-0.9,10.55
574.075,0.59,0.51,-4.08
574.112,-4.16,-1.45,-11.53
574.153,8.94,-4.31,4.98
574.191,4,-6.63,1.57
574.228,16.12,1.41,20.01
574.267,7.92,5.92,5.06
574.303,3.02,9.57,19.06
574.341,-0.9,5.22,3.3
574.378,-3.88,4.43,5.88
574.416,-0.24,0.59,-1.1
574.454,-0.51,0.75,-7.02
574.607,2.39,-1.73,2.35
574.645,-20.01,20.01,-19.73
574.686,1.18,4.16,19.97
574.724,8.75,-4.47,14.51
574.762,7.45,-5.41,10.87
574.801,1.06,0.08,0.59
574.837,-4.71,-1.69,-11.45
574.878,7.41,-5.22,2.82
574.916,3.41,-6.75,1.02
574.953,20.01,2.71,20.01
574.992,2.86,9.38,10.16
575.029,6.47,4.75,20.01
575.067,-1.22,5.45,1.26
575.258,-1.96,4.67,2.39
575.296,20.01,-20.01,20.01
575.336,-19.06,11.02,19.02
575.377,10.36,2.31,12.79
575.416,2.67,-0.63,5.06
575.453,9.06,-1.61,10.67
575.492,0.78,0,7.41
575.528,-0.31,-0.43,-3.1
575.568,-2.51,-3.26,-6.9
575.607,7.34,-4.63,5.88
575.645,3.92,-5.18,4.79
575.682,16.59,10,20.01
575.722,-20.01,20.01,10
575.762,-6.59,6.55,18.51
575.954,-1.65,-0.47,0.35
575.993,20.01,-10.79,20.01
576.033,-2.24,14.28,13.53
576.073,-9.85,20.01,4.12
576.111,0.98,8.04,15.26
576.149,5.65,-7.81,15.61
576.187,3.37,-5.22,11.57
576.226,-1.57,2.31,-3.26
576.264,-0.08,-1.02,-8.24
576.304,8.16,-5.26,-0.86
576.343,-4.51,-0.98,7.06
576.381,20.01,6.86,20.01
576.42,6.94,-0.63,8.75
576.532,-0.24,2.08,4.63
576.57,3.96,-2.43,3.37
576.607,-0.24,-3.61,-8.39
576.647,-1.26,-0.35,-1.49
576.686,-0.78,10.32,-0.47
576.726,7.69,-10.2,20.01
576.765,3.06,0,-5.02
576.803,-1.77,9.06,3.06
576.84,7.41,-3.77,6.79
576.878,4.28,-2.39,13.1
576.917,0.71,-1.57,1.57
576.954,-4.98,-2.35,-6.04
576.994,1.1,-1.92,-1.45
577.032,10.08,-0.08,4.43
577.148,6.12,0.75,20.01
577.185,-2.04,5.41,0.67
577.223,0.75,3.45,0.98
577.259,1.14,0.2,2.24
577.296,-1.92,-2.39,-10.04
577.336,-3.69,-0.35,-2.28
577.376,4.39,0.63,2.51
577.412,20.01,-20.01,20.01
577.453,-2.67,4.98,7.92
577.49,11.96,-9.69,20.01
577.53,9.85,-9.3,13.3
