NAME:,walk_2_1.csv,,
EXPERIMENT TIME:,22-05-22 20:02,,
ACTIVITY TYPE:,Walking,,
COUNT OF ACTUAL STEPS,116,,
   ,,,
Time [sec],ACC X,ACC Y,ACC Z
221.194,-2.47,8.32,3.49
221.382,-4.67,8.9,1.84
221.42,-3.73,8.63,1.84
221.457,-3.41,8.47,2.16
221.495,-3.18,8.51,2.24
221.532,-3.14,9.14,2.63
221.57,-2.94,8.67,1.77
221.607,-2.67,8.83,1.84
221.645,-2.9,9.69,2.28
221.682,-2.86,9.26,2.43
221.72,-2.94,11.02,4.04
221.758,-4.12,12.59,2.04
221.797,-4.51,13.22,2.71
221.835,-2.16,12.55,5.77
222.024,-1.06,8,3.96
222.061,-2.16,6.83,5.3
222.099,-1.88,4.35,4.08
222.136,-3.06,3.06,2.2
222.174,-4.63,5.69,3.57
222.211,-3.53,4.08,1.88
222.249,-4.9,9.85,5.49
222.286,-4.35,11.41,5.73
222.325,-6.43,11.41,2.47
222.44,-1.18,8.94,3.37
222.477,-6.04,13.57,3.88
222.516,-3.1,8,7.41
222.666,-0.24,4.98,2.51
222.703,-3.96,7.61,0.43
222.741,-6.08,2.98,7.26
222.778,-5.3,13.85,6.55
222.817,-5.41,14.2,4.79
222.855,-3.41,13.69,5.37
222.894,-0.55,10.98,13.42
222.933,-2.35,5.77,5.06
222.971,-2.63,6.63,4.08
223.008,-1.84,6.47,3.8
223.046,-2.12,6.59,3.33
223.083,-2.24,5.14,3.33
223.121,-2.16,2.59,1.96
223.158,-6.55,4.39,2.16
223.31,-5.1,10.08,4.94
223.349,-10.16,10.87,2.28
223.389,-5.65,7.18,6.71
223.426,-0.78,4.9,7.49
223.464,-5.14,13.96,9.22
223.502,-9.85,11.18,11.38
223.542,-5.14,6.98,5.49
223.579,-1.45,5.69,0.43
223.617,-2.2,4.39,-0.39
223.655,-2.67,4.79,2.9
223.693,-2.51,7.61,2.82
223.73,-2.82,7.1,-0.63
223.769,-6.98,6.32,-1.37
223.961,-1.84,5.45,5.1
223.999,-2.04,6.04,3.22
224.036,-3.1,6.12,3.57
224.074,-2.28,7.45,4.67
224.111,-3.3,7.14,5.84
224.149,-0.78,3.69,2.98
224.186,-1.73,3.45,0.78
224.224,-5.49,6.98,4.86
224.261,1.8,-8.16,1.53
224.299,-6.75,8.83,2.55
224.336,-3.65,8.24,3.22
224.374,-7.06,10.98,3.73
224.413,-11.73,10.98,3.14
224.602,-4.16,8.36,4.98
224.64,-4.28,6.47,2.2
224.677,-4.12,4.94,0.98
224.715,-4.08,4.63,2.82
224.752,-2.24,6.67,1.33
224.79,-2.86,7.06,0.35
224.827,-5.1,7.57,1.29
224.865,-5.49,10.16,4.08
224.903,-7.41,13.22,4.59
224.942,-7.69,13.57,1.49
224.98,-2.2,12.32,5.3
225.019,-0.47,9.85,16.28
225.057,-3.49,5.65,6.35
225.095,-5.1,7.85,2.51
225.207,-1.65,4.51,8.79
225.245,-0.67,3.88,2.47
225.282,-3.37,5.06,1.96
225.32,-7.26,6.35,2.35
225.357,-7.77,8.12,2.82
225.395,-5.81,9.02,4.28
225.432,-6.32,10.43,5.14
225.471,-7.77,12.43,5.26
225.509,-3.3,8.47,7.96
225.547,-2.82,6.71,6.47
225.584,-1.53,6.55,9.61
225.622,-5.45,13.38,6.86
225.66,-4.39,9.18,6.39
225.698,-2.47,4.59,3.53
225.735,-3.61,4.28,0.12
225.848,-3.02,7.88,1.33
225.885,-4.63,9.26,1.65
225.923,-10.36,11.81,3.96
225.963,-6.47,13.22,4.75
226.001,-4.04,15.89,10.2
226.041,-2.16,8.28,7.37
226.078,-3.96,6.24,1.1
226.116,-2.63,5.45,4.59
226.153,-2,6.04,6.28
226.191,-1.69,7.57,5.45
226.228,-1.77,5.69,3.88
226.266,-2.55,3.3,1.8
226.303,-4.43,4.47,2.16
226.341,-6.75,7.53,4.08
226.453,-5.57,10.2,4.9
226.492,-7.92,10.87,3.77
226.53,-4.12,9.65,7.53
226.568,-1.88,6.59,7.85
226.605,-1.49,8.79,6.9
226.643,-5.65,12.94,9.53
226.681,-2.75,8.51,7.45
226.719,-2.9,5.06,2.71
226.756,-4.2,4.82,0.67
226.794,-3.3,5.26,2.08
226.831,-1.92,6,1.73
226.869,-2.39,6.9,0.39
226.906,-5.49,7.77,0.16
226.944,-5.77,10.43,4.2
226.982,-5.61,14.55,6.75
227.098,-0.39,6.43,8.9
227.135,-2.59,6.2,4.28
227.173,-3.96,5.81,2.82
227.21,-2.51,6.16,4.43
227.248,-2.35,7.92,4.63
227.285,-1.65,5.41,3.45
227.323,-2.82,2.71,1.8
227.36,-5.53,5.45,3.92
227.398,-7.88,6.16,4.39
227.435,-11.22,12.83,-0.94
227.476,-3.69,9.3,4.55
227.514,-7.1,10.79,4.67
227.552,-6.94,11.49,6.71
227.591,-2.63,6.98,9.06
227.628,-0.75,4.9,13.02
227.781,-4.31,4.82,1.14
227.819,-4,4.67,1.57
227.856,-1.49,5.96,1.33
227.894,-2.08,7.81,0.51
227.931,-4.98,8.2,0.51
227.969,-6.39,10,2.98
228.007,-5.22,14.04,7.14
228.046,-6.12,11.69,3.1
228.084,-2.31,11.96,9.85
228.123,-0.67,7.77,10.08
228.161,-2.51,6.08,4.08
228.199,-3.41,5.92,2
228.236,-3.14,5.14,7.53
228.274,-2.63,7.61,5.3
228.386,-6.08,5.77,4.12
228.424,-9.26,8.79,4.35
228.461,-6.28,5.33,6.28
228.499,-3.96,8.87,2.51
228.536,-6.35,9.81,3.84
228.574,-7.92,11.69,4.79
228.613,-1.84,7.61,9.53
228.65,-1.88,7.1,8
228.688,-3.8,11.06,6.71
228.726,-3.77,10.2,7.53
228.765,-2.67,6.32,2.39
228.802,-3.22,5.02,1.69
228.84,-5.1,4.43,1.65
228.877,-3.45,5.3,0.75
228.915,-2.59,7.3,-0.51
229.067,-5.88,13.1,2.31
229.105,-2.75,12.79,8.43
229.144,-1.14,8.32,9.85
229.181,-3.18,6.16,4
229.219,-4.24,5.3,2.59
229.256,-2.16,5.26,3.41
229.294,-1.8,7.26,5.26
229.331,-1.49,5.92,5.45
229.369,-3.26,3.88,2.39
229.406,-4.2,5.02,2.2
229.444,-7.14,7.41,3.41
229.481,-4.71,9.85,3.77
229.672,4.67,6.43,7.49
229.708,-3.06,10.04,6.12
229.747,-5.37,9.53,9.41
229.784,-2.16,6.04,2.55
229.822,-2.94,5.26,1.1
229.859,-4.47,5.1,0.98
229.897,-3.65,5.61,1.61
229.934,-2.67,7.61,0.24
229.972,-5.02,6.67,0.63
230.009,-6.79,8.63,1.84
230.047,-4.47,12.79,4.82
230.085,-6.04,13.42,1.37
230.124,-4.79,11.14,3.69
230.162,-0.27,10.16,14.24
230.352,-4.2,6.67,6.75
230.39,-1.02,4.04,1.18
230.427,-2.16,4.2,3.22
230.465,-3.3,4.98,-0.9
230.503,-5.96,10,6.35
230.542,-2.82,9.81,5.45
230.579,-6.71,8.51,1.61
230.617,-10.16,11.34,2.75
230.656,-1.92,9.45,9.38
230.694,1.02,7.57,7.26
230.73,-2.98,9.38,5.65
230.768,-5.69,11.34,7.34
230.806,-2.31,8.36,5.3
230.956,-1.02,6.55,2.82
230.994,-1.92,8.28,1.26
231.031,-4.94,7.85,1.49
231.069,-5.57,10.32,3.37
231.107,-6.43,13.1,3.61
231.146,-6.04,13.06,2.71
231.184,-3.57,13.3,8.79
231.223,-0.94,7.1,5.81
231.26,-2.35,6.59,4.9
231.298,-3.37,6.47,5.3
231.335,-2.16,7.06,4.55
231.373,-3.41,7.49,4.16
231.41,-2.55,5.88,3.73
231.448,-2.86,3.65,2.24
231.597,-4.39,8.47,4.63
231.634,-5.02,10.24,5.65
231.673,-8.2,11.22,3.37
231.711,-5.22,10.75,6.43
231.75,-1.69,6.67,7.77
231.787,0.43,8.75,7.85
231.824,-3.49,11.06,7.77
231.862,-3.69,10.2,9.49
231.901,-2.67,6.59,2.35
231.939,-4.28,4.71,2.04
231.976,-4.51,4.51,1.22
232.014,0.08,5.57,0.9
232.05,-2.12,7.53,0.51
232.087,-3.96,7.96,0.78
232.24,-5.3,11.34,2.9
232.278,0,12.24,15.22
232.317,-0.75,4.75,6.71
232.354,-3.65,5.61,2.79
232.392,-3.18,5.61,2.59
232.429,-2.63,7.61,4.9
232.467,-1.45,7.18,5.37
232.504,-0.39,2.98,3.37
232.542,-3.92,4.51,3.61
232.579,-4.86,9.61,-1.06
232.618,-6.86,8.59,4.67
232.655,-4.79,8.79,3.37
232.693,-5.69,9.81,2.67
232.73,-7.96,11.34,4.43
232.769,-3.53,8.87,10.32
232.882,-4.28,11.41,7.61
232.921,-4.2,7.26,3.96
232.958,-4.24,6.24,1.65
232.996,-4.39,5.49,1.92
233.033,-2.39,5.73,1.49
233.071,-2.35,6.9,-0.12
233.109,-3.14,7.34,-0.86
233.148,-5.3,8.59,1.18
233.185,-6.35,13.65,7.73
233.224,-6.12,13.96,4.9
233.262,-4.31,13.1,3.92
233.301,-1.26,10.63,10.51
233.341,-3.22,5.1,4.94
233.378,-4.82,5.53,3.88
233.491,-2.08,6.94,4.79
233.528,-2.28,3.84,2
233.566,-3.3,4.43,2.67
233.603,-3.02,4.94,-0.86
233.642,-6.98,8.39,5.61
233.679,-4.24,9.38,4.82
233.717,-5.92,9.81,3.92
233.754,-8.51,11.65,3.65
233.793,-2.24,9.18,10.55
233.831,0,7.81,7.69
233.868,-2.12,9.3,4.63
233.905,-4.71,9.77,7.26
233.943,-4.71,6.86,5.3
233.98,-3.96,5.81,1.49
234.018,-4.35,5.06,1.77
234.055,-3.1,5.37,1.92
234.205,-6.39,12,5.3
234.244,-5.92,14.71,4.79
234.282,-4.47,12.75,4.86
234.321,-1.92,10.71,10.75
234.36,-2.24,6.2,4.86
234.398,-4.04,5.61,2.98
234.435,-3.49,5.57,4.08
234.473,-2.47,8.28,3.3
234.51,-1.33,6.94,4.35
234.548,-2.63,3.92,1.92
234.585,-4.55,4.16,2.55
234.623,-6.08,7.26,3.45
234.66,-3.84,10,4.39
234.775,-8.55,11.22,4.86
234.814,-2.55,7.02,9.69
234.851,0.94,7.06,8.71
234.887,-4.08,11.49,7.45
234.926,-5.33,9.69,8.67
234.963,-3.53,6.9,3.02
235.001,-2.82,5.3,0.86
235.038,-4.2,4.9,1.49
235.076,-2,5.37,1.92
235.113,-1.88,6.63,0.55
235.151,-3.53,8.2,0.59
235.188,-6.75,9.73,2.28
235.226,-5.3,14.47,4.71
235.265,-5.61,12.87,2.35
235.303,-2.43,12.59,9.02
235.342,-0.78,6.94,9.26
235.379,-2.47,6.32,5.22
235.417,-3.96,6,3.06
235.454,-2.63,5.84,3.45
235.492,-3.57,7.3,4.98
235.529,-2.24,5.81,4.67
235.567,-2.79,3.8,1.92
235.604,-3.33,5.1,2.71
235.642,-2.08,-0.63,3.06
235.68,-4.86,9.65,5.22
235.718,-4.98,9.3,3.8
235.755,-7.22,9.57,4.35
235.793,-9.34,10.79,13.73
235.832,-7.77,7.49,15.81
235.871,2.08,8.47,6.79
235.907,-5.02,11.26,8.67
235.946,-1.69,8.51,7.85
236.058,-4.35,4.82,1.73
236.096,-1.1,6.32,2.63
236.133,-2.16,7.57,-0.63
236.172,-6.32,8.75,0
236.209,-7.22,9.89,4.43
236.247,-4.9,14.83,6.43
236.285,-5.37,12.24,4.12
236.324,-1.69,12.47,12.55
236.363,-1.69,6.04,6.28
236.401,-3.77,6.63,2.9
236.439,-2.59,4.82,2.71
236.476,-1.92,7.18,1.88
236.514,-3.18,7.34,5.88
236.551,-1.88,4.67,3.41
236.589,-2.43,3.26,1.61
236.702,-7.37,11.34,3.41
236.741,-3.96,9.49,2.82
236.778,-7.73,11.1,4.51
236.817,-5.73,9.53,9.34
236.854,-1.26,7.53,6.9
236.892,-2.98,10.12,5.06
236.93,-6.16,12.4,9.53
236.969,-2.71,8.16,3.88
237.006,-3.3,5.49,1.18
237.044,-4.28,4.16,1.1
237.081,-3.96,4.86,0.94
237.119,-0.94,7.37,1.33
237.156,-1.77,8.32,0.16
237.194,-5.81,9.06,1.1
237.231,-7.22,13.22,5.22
237.27,-4.79,14.95,4.47
237.308,-2.59,13.14,8.39
237.347,-2,8.2,8.47
237.384,-3.06,6.08,4.04
237.422,-4.08,5.69,2.67
237.459,-2.59,6,4.43
237.497,-2.47,7.37,5.18
237.534,-1.26,6.16,3.88
237.572,-1.84,3.41,2.47
237.609,-3.45,4.63,2.82
237.647,7.41,-9.49,0
237.684,-6.12,9.34,3.14
237.722,-4.16,10.04,4.67
237.76,-5.84,10.08,3.61
237.799,-8.55,11.41,4.67
237.837,-3.73,8.36,9.85
237.875,-0.2,7.49,6.71
238.027,-3.41,4.94,1.84
238.065,-4.39,4.43,1.18
238.102,-2.94,5.22,-0.43
238.141,-2.2,6.9,-0.12
238.179,-4.55,9.14,1.69
238.217,-6.83,11.81,4.63
238.255,-6.04,15.1,4
238.294,-3.8,11.81,2.79
238.332,-0.63,13.81,13.06
238.372,-0.35,5.37,6.2
238.409,-3.61,5.26,2.63
238.447,-3.69,5.57,3.18
238.484,-2.59,7.92,5.18
238.634,-7.26,6.94,3.3
238.672,-9.14,9.02,2.55
238.709,-3.02,9.81,4.82
238.747,-5.02,10.32,3.14
238.785,-8.2,11.92,5.77
238.824,-4.9,9.73,8.67
238.861,-0.39,6.83,9.38
238.899,-3.06,10.16,6.51
238.937,-6,11.61,8.55
238.976,-1.02,5.92,2.9
239.014,-3.53,4.79,1.41
239.051,-4.43,4.47,0.35
239.089,-3.33,4.59,0.75
239.126,-2.59,7.41,0.67
239.164,-4.24,8.12,0.47
239.316,-1.69,12.91,9.57
239.354,-0.75,8.32,12
239.393,-3.57,6.63,3.45
239.43,-3.92,5.61,2.08
239.468,2.39,4.39,4.9
239.504,-2.63,7.18,5.3
239.542,-1.14,5.73,5.06
239.579,-2.43,3.49,2.12
239.617,-11.89,5.77,-1.37
239.656,-8.2,7.96,2.82
239.694,-6.75,10.55,4.79
239.732,-4.59,9.26,3.53
239.77,-8.43,11.14,3.65
239.884,-2.82,9.26,4.71
239.922,-4.2,11.57,8.08
239.96,-4.24,8.28,3.69
239.998,-3.37,6.2,1.1
240.035,-4.94,4.67,1.73
240.073,-3.45,4.67,0.16
240.11,-0.82,5.96,-0.2
240.149,-3.45,8.08,-0.2
240.187,-6.39,10.08,3.53
240.226,-5.1,13.06,7.88
240.265,-4.94,13.06,2.31
240.303,-1.41,12.79,11.61
240.343,-1.45,7.34,10.79
240.381,-3.37,6.2,3.45
240.419,-3.3,4.75,1.41
240.456,0.63,6.55,4.16
240.568,-3.57,2.79,1.06
240.605,-7.81,8.83,2.31
240.643,-8.94,8.9,3.18
240.68,-3.53,9.53,5.14
240.718,-4.71,9.02,2.94
240.755,-7.73,11.41,4.31
240.794,-5.06,10.36,9.06
240.832,-1.06,6.67,6.2
240.87,-1.22,8.04,6.86
240.907,-5.73,12.2,7.34
240.946,-3.88,9.57,6.98
240.983,-2.35,6.94,1.69
241.021,-4.08,4.55,0.75
241.058,-5.06,4.43,0.2
241.171,-5.18,8.71,1.53
241.208,-6.08,12.12,7.06
241.247,-6.2,14.36,4.39
241.285,-4.82,11.89,6.47
241.324,-0.51,12.67,14.75
241.364,-2.47,6.24,4.43
241.401,-3.69,5.3,1.65
241.439,-1.69,5.33,2.79
241.476,-3.02,7.88,5.84
241.514,-1.49,6.35,5.22
241.551,-2.04,3.33,1.49
241.589,-3.92,3.8,1.45
241.626,1.33,4.79,1.61
241.662,-5.73,9.69,3.22
241.851,-0.39,7.77,5.57
241.889,-4.79,12.12,8.39
241.927,-2.82,9.22,8.04
241.965,-2.08,5.81,4.12
242.002,-3.61,4.82,0.12
242.04,-4.39,4.63,0.82
242.077,-2,5.33,1.26
242.115,-3.14,7.3,-1.02
242.153,-5.1,7.85,1.02
242.191,-6.83,11.89,4.55
242.229,-5.45,15.26,6.47
242.268,-2.43,11.96,2.55
242.306,-1.41,11.53,12.28
242.346,-3.18,6.39,5.41
242.458,-2.24,7.22,4.24
242.496,-1.53,6.59,5.92
242.533,-3.3,3.69,1.37
242.571,-3.02,4.39,3.65
242.608,-7.65,0.04,3.26
242.646,-8,10.83,6.86
242.684,-5.33,10.08,4.63
242.723,-6.79,10.2,3.37
242.761,-7.18,10.59,7.14
242.8,-1.49,7.06,6.86
242.837,-2.2,7.77,5.26
242.875,-5.84,12.36,8.55
242.914,-3.14,10,5.84
242.952,-0.55,7.06,2.94
242.99,-4.28,4.9,1.49
243.141,-4.24,8.39,2.94
243.178,-7.49,9.61,7.85
243.216,-5.06,15.42,7.57
243.254,-6.28,12.08,-0.59
243.294,-1.18,11.96,9.45
243.332,-0.43,6.04,9.02
243.37,-3.02,6.2,4.35
243.407,-3.02,5.18,2.63
243.445,-2.79,5.84,3.06
243.482,-3.1,7.3,5.45
243.52,-1.18,4.9,3.49
243.557,-2.67,2.86,1.57
243.595,-6.9,5.18,2.55
243.632,-8.28,8.39,7.57
243.745,-9.22,10.83,3.96
243.783,-2.12,6.59,10.67
243.822,0.08,8.43,6.63
243.858,-3.41,10.83,4.63
243.897,-6.12,11.92,9.06
243.935,-0.67,7.37,2.94
243.973,-2.51,4.55,1.92
244.01,-4.43,3.49,1.37
244.048,-4.71,3.61,0.43
244.085,-0.55,5.18,-0.2
244.124,-5.41,4.82,-0.04
244.162,-7.14,9.61,2.75
244.2,-6.63,14.63,6.39
244.239,-4.86,12.63,0.47
244.277,-0.24,14.67,12.67
244.317,-1.14,6.04,8.71
244.429,-3.02,6.59,6.2
244.467,-4.12,8.16,7.85
244.504,-0.71,4.43,4.04
244.542,-1.61,2.2,0.82
244.579,-5.06,4.79,2.67
244.617,4.86,-5.02,4.98
244.654,-6.04,11.22,2.24
244.693,-4.51,8.98,3.69
244.73,-7.06,9.92,2.31
244.768,-6.86,11.18,7.41
244.806,-1.84,7.85,7.26
244.844,-1.26,9.92,6.24
244.881,-5.3,12.67,9.77
244.92,-5.73,9.77,4.79
245.032,-5.45,3.92,1.37
245.07,-3.61,5.18,-0.86
245.108,-3.53,7.49,-0.71
245.147,-6.24,9.34,3.26
245.184,-5.1,12.94,1.73
245.223,-6.08,14.55,4.55
245.261,-5.26,9.96,2.75
245.299,-5.45,8.04,14.12
245.337,-2.16,6.16,6.35
245.375,-2.71,5.49,0.43
245.412,-3.06,4.86,2.24
245.45,-4.12,6.79,5.18
245.487,-2.31,7.3,7.69
245.525,-1.61,3.61,2.75
245.637,-7.45,9.77,-0.98
245.676,-4.98,9.14,3.96
245.714,-7.14,9.22,1.73
245.751,-7.81,10.9,4.9
245.79,-2.67,7.41,9.3
245.827,0.78,9.02,6.32
245.863,-3.26,11.34,5.33
245.902,-7.34,10.36,8
245.941,-2.31,7.37,3.61
245.978,-3.02,5.41,1.65
246.016,-4.2,4.43,1.18
246.053,-2.98,4.94,1.18
246.091,-2.94,6.79,-0.31
246.129,-4.82,7.3,-0.27
246.168,-7.61,10.12,3.02
246.206,-5.41,15.38,7.65
246.323,-0.43,5.81,6.28
246.36,-2.79,5.18,2.67
246.398,-3.49,5.18,2.51
246.435,-3.06,7.49,2.86
246.473,-2.9,7.45,5.65
246.51,-3.45,5.1,1.8
246.548,-3.06,2.55,1.06
246.585,-7.14,6.51,2.71
246.623,-8.04,8.32,4.55
246.66,-2.94,8.87,4
246.698,-5.02,9.06,3.77
246.735,-8.47,9.22,2.86
246.773,-8.24,11.41,5.18
246.811,-1.65,5.96,12.43
246.85,-1.26,10.16,6.75
246.965,-4.43,5.65,1.69
247.002,-4.2,4.79,1.33
247.04,-1.92,4.55,0.78
247.077,-1.49,5.92,0.67
247.115,-2.43,7.49,1.45
247.152,-7.1,9.41,1.33
247.19,-5.84,13.3,5.33
247.228,-4.86,14.51,5.06
247.267,-3.41,15.14,9.77
247.305,-2.31,8.9,9.18
247.343,-3.22,5.41,2.35
247.38,-4.79,4.82,2.24
247.418,-1.8,6.79,6.9
247.455,-2.28,8.08,5.45
247.493,-1.37,5.14,3.57
247.605,-6.55,5.37,6.39
247.643,-5.96,8.67,5.06
247.68,-3.96,9.14,3.92
247.718,-6.75,10.16,4.31
247.756,-8.75,11.3,4.51
247.795,-1.92,8.08,10.47
247.833,0.71,8.08,6.28
247.87,-3.3,9.53,5.14
247.907,-4.82,10.79,7.49
247.946,-2.9,7.22,3.06
247.983,-3.84,5.84,2.28
248.021,-5.26,4.75,1.61
248.058,-3.84,4.51,0.35
248.096,-0.9,6.63,1.18
248.248,-6.55,13.34,2.98
248.286,-4.35,12.79,7.65
248.325,-1.45,8.71,12.28
248.363,-1.84,6.59,5.22
248.401,-1.77,4.9,1.84
248.438,-2.51,5.69,2.59
248.476,-3.41,7.57,9.45
248.513,-2.08,6.59,5.45
248.551,-1.88,3.88,1.22
248.588,-4.86,3.45,0.86
248.626,8.71,4.2,-1.29
248.663,-6.39,9.65,5.77
248.701,-4.39,9.41,4.67
248.738,-5.88,9.3,4.16
248.776,-8.51,10.59,4.16
248.888,-4.47,11.41,7.06
248.927,-7.14,10.83,6.83
248.966,-3.53,7.85,2.51
249.003,-3.06,6.43,1.06
249.041,-4.47,4.79,1.37
249.078,-4,4.55,0.98
249.116,-3.06,7.45,1.22
249.153,-3.65,7.88,-0.08
249.192,-5.92,7.53,1.61
249.229,-5.57,13.1,6.24
249.268,-5.77,14.51,4.67
249.306,-5.41,11.77,4.63
249.345,-2.08,9.96,10.28
249.383,-1.77,6.39,6.39
249.496,-4.04,7.06,3.65
249.533,-3.02,6.32,4.75
249.571,-2.55,3.73,2.43
249.608,-3.18,4.86,2.82
249.646,-4.47,7.77,1.57
249.683,-6.86,7.49,3.57
249.721,-4.35,8.55,4.04
249.758,-4.98,10.2,5.3
249.797,-7.53,10.32,3.37
249.835,-6.94,10.4,5.88
249.874,-1.49,7.34,8.71
249.911,-2.98,8.12,5.49
249.949,-5.96,12.51,9.1
249.987,-3.41,8.67,7.18
250.025,-3.37,6.79,2
250.137,-0.51,5.3,1.61
250.175,-2.24,7.45,0.16
250.212,-5.02,7.53,0.9
250.25,-5.73,8.47,2.9
250.287,-5.18,14,7.45
250.326,-5.61,12.43,1.53
250.365,-3.77,12.43,7.96
250.403,-1.41,8.94,11.69
250.442,-2.59,6.16,2.63
250.479,-4.75,5.18,1.88
250.517,-3.02,6.79,4.63
250.554,-2.94,8.16,6.39
250.592,-1.57,6.24,5.26
250.629,-2.31,2.79,1.57
250.667,-4.35,5.26,3.53
250.778,-4.82,8.36,4.47
250.817,-5.61,9.61,3.8
250.854,-7.22,11.26,4.24
250.893,-2.9,7.88,10.71
250.931,-1.77,7.02,6.71
250.969,-3.57,10,6.98
251.007,-5.33,11.45,8.43
251.046,-2.55,7.45,4.63
251.083,-3.84,6,1.18
251.121,-3.1,4.59,0.86
251.158,-4.39,5.1,1.29
251.196,0.43,6.83,4.63
251.232,-2.2,7.69,0
251.27,-5.41,8,1.53
251.307,-4.16,13.57,5.33
251.423,-1.06,13.22,13.38
251.462,-1.18,5.92,3.53
251.5,-3.96,5.53,0.98
251.537,-3.57,5.73,4.31
251.575,-2.94,7.45,5.92
251.612,-1.88,7.69,5.69
251.65,-2.35,4.12,2.35
251.687,-3.33,3.73,3.45
251.725,14.08,-5.65,11.85
251.765,-7.14,7.92,3.61
251.802,-3.88,9.18,4.51
251.84,-5.45,9.81,4.55
251.877,-8.51,9.92,2.2
251.915,-7.65,10.71,6.24
251.953,0,7.45,9.92
252.065,-4.9,9.34,6.9
252.103,-2.55,7.18,2.04
252.141,-3.33,5.1,1.53
252.178,-4,4.55,1.14
252.216,-1.96,5.18,1.96
252.253,-2.47,6.43,0.04
252.291,-4.94,7.45,1.02
252.328,-5.14,10.67,3.69
252.367,-5.1,15.22,4.82
252.405,-6.28,10.79,2.67
252.444,-1.22,14,14.67
252.483,-2.86,5.22,6.51
252.521,-2.55,6.59,2.12
252.558,-3.92,6.51,2.2
252.708,-1.92,2.75,0.63
252.746,-6.43,6.51,3.26
252.783,-3.45,1.8,-4.2
252.822,-4.43,8.98,2.35
252.859,-4.16,9.26,3.69
252.897,-7.45,10.67,4.59
252.935,-6.47,10.94,7.06
252.974,-1.29,7.22,8.79
253.011,-2.63,9.06,4.98
253.049,-5.26,11.53,7.57
253.087,-2.98,7.49,5.53
253.125,-3.22,6.59,1.53
253.162,-4.55,4.86,2.24
253.2,-4.55,4.39,1.14
253.313,-4.94,7.92,1.06
253.351,-6.51,10.9,4.28
253.39,-5.81,14.67,6.2
253.428,-5.3,11.77,2.16
253.467,-1.29,13.06,13.14
253.506,0.43,5.26,8.63
253.543,-2.9,6.35,3.33
253.58,-2.39,6.16,2.31
253.618,-1.45,7.41,5.3
253.655,-2.94,7.61,6.63
253.693,-1.57,4.67,3.1
253.73,-2.82,3.1,0.98
253.768,-4.98,5.65,3.49
253.805,-5.26,7.53,3.18
253.843,-4.79,8.9,4.04
253.88,-5.57,9.89,5.53
253.994,0.2,7.77,13.69
254.031,-0.67,8.08,4.67
254.069,-5.06,11.45,6.79
254.107,-4.24,10.4,8.12
254.146,-1.84,7.61,3.1
254.183,-3.77,5.1,1.41
254.221,-4.82,4.24,1.37
254.258,-3.65,4.9,0.94
254.296,-2.08,8.08,0.51
254.333,-4.35,7.49,0.2
254.371,-6.28,7.73,1.41
254.408,-4.39,14.59,7.37
254.447,-5.53,13.06,2.71
254.485,-4.67,10.79,4.71
254.637,-4.71,7.22,3.22
254.675,-3.57,7.57,4.82
254.712,-1.61,6.83,4.75
254.75,-1.45,2.63,0.98
254.787,-2.08,3.33,3.57
254.825,-3.06,3.3,2
254.862,-8.71,8.55,4.55
254.9,-7.3,9.61,4.04
254.937,-4.98,9.41,4.47
254.975,-8.43,9.85,2.67
255.012,-4.51,8.55,8.98
255.05,1.41,5.92,9.65
255.086,-1.88,8.79,9.61
255.124,-7.77,13.26,8.71
255.237,-4.67,4.08,0.71
255.275,-4.9,4.2,0.2
255.312,-0.16,5.88,1.06
255.35,-1.84,8.71,0.04
255.387,-4.9,7.61,0.86
255.425,-5.57,9.3,3.96
255.462,-4.47,14.47,8.51
255.501,-5.26,12.67,4.86
255.54,-3.8,15.1,12
255.579,-1.65,7.1,7.45
255.617,-1.84,5.37,2.12
255.654,-3.45,5.96,2.63
255.692,-2.9,5.14,9.45
255.729,-3.61,7.92,6.08
255.767,-1.8,5.69,3.22
255.918,-5.26,7.57,3.14
255.955,-3.57,8.94,4.04
255.993,-5.37,9.57,4.79
256.03,-9.06,10.43,2.71
256.069,0.04,6.12,10.59
256.106,-1.53,7.49,6.51
256.144,-2.04,8.36,6.12
256.181,-5.53,12.28,8.71
256.22,-3.26,8.71,6.43
256.257,-3.96,6.51,1.88
256.295,-4.75,4.51,1.49
256.332,-4.63,4.63,1.26
256.37,-0.43,5.18,0.71
256.407,-2.04,7.34,0.55
256.52,-5.57,13.89,6.98
256.558,-5.45,13.3,4.24
256.597,-3.22,12.79,8.08
256.635,-0.82,9.34,12.36
256.674,-3.3,6.79,1.53
256.711,-4.71,4.9,1.49
256.749,-3.49,4.75,4.86
256.786,-2.12,7.06,5.26
256.824,-1.77,6.47,4.94
256.861,-3.33,3.45,1.84
256.899,-6.04,5.69,3.84
256.936,-7.22,6.94,1.96
256.974,-4.94,8.28,4.94
257.011,-3.41,8.12,4.08
257.049,-6,9.61,5.14
257.201,-3.18,9.77,6.79
257.238,-4.59,11.18,7.53
257.277,-2.82,7.26,3.41
257.315,-4.2,5.77,2.39
257.352,-5.41,4.79,1.22
257.39,-2.08,5.06,1.8
257.427,-1.14,5.84,2.04
257.465,-1.8,6.24,1.33
257.502,-5.77,7.61,0.71
257.54,-5.69,11.22,4.39
257.578,-6.04,14.4,5.84
257.617,-5.33,11.92,2.98
257.655,-2.28,14.32,13.26
257.695,-0.67,6.79,7.92
257.807,-1.96,7.14,5.1
257.845,-2.24,7.3,6.71
257.882,-2.16,5.81,4.04
257.92,-3.57,3.22,1.1
257.957,-7.53,10,2.16
257.996,-7.96,6.94,1.26
258.033,-4.59,8.08,4.04
258.071,-1.73,9.57,5.49
258.108,-5.81,9.85,4.47
258.146,-10.9,10.79,2.9
258.185,-5.33,9.02,8.98
258.223,0.63,7.41,5.88
258.259,-3.06,10.75,5.49
258.298,-5.53,11.61,7.92
258.336,-3.14,8,4.63
258.374,-4.51,6.71,1.69
258.486,-1.33,6.43,1.26
258.524,-1.53,7.69,0.55
258.561,-5.18,8.04,1.02
258.599,-4.94,11.02,4.82
258.637,-6.04,13.73,4.59
258.676,-6.55,11.22,2.71
258.715,-2.35,14,14.2
258.754,-1.14,5.53,8.24
258.792,-2.94,5.61,2.51
258.829,-4.47,6,2.24
258.867,-2.47,7.14,5.26
258.904,-2.16,8,6.9
258.942,-1.49,3.92,2.55
258.979,-2.63,2.71,1.18
259.092,-5.45,9.38,2.35
259.129,-3.14,8.79,2.94
259.167,-6.32,9.57,2.63
259.204,-8.98,10.4,4.12
259.243,-1.77,8.36,10.9
259.281,0.98,7.96,7.1
259.318,-4.04,11.41,6.43
259.356,-6.35,10.08,7.34
259.395,-3.57,7.69,3.06
259.432,-3.73,6,1.69
259.47,-4.79,4.51,1.29
259.507,-3.41,4.86,0.78
259.545,-1.37,7.22,0.43
259.582,-3.53,7.88,0.51
259.62,-5.53,7.81,1.02
259.657,-6.08,11.73,5.45
259.773,-1.06,12.59,12.59
259.812,-2.9,6.51,7.02
259.85,-3.06,5.96,2.08
259.887,-2.86,6.2,2.43
259.925,-1.84,6.9,5.26
259.962,-1.37,7.22,6.83
260,-1.77,4.08,1.57
260.037,-4.55,4.35,2.55
260.075,-5.37,2.04,2.16
260.112,-9.06,7.81,3.3
260.15,-4.9,8.43,4.94
260.187,-3.14,9.57,3.84
260.225,-6.71,10.79,3.92
260.263,-6.24,11.45,10.08
260.379,-3.96,10.63,6.83
260.418,-1.96,9.02,5.88
260.455,-2.9,6.94,2.24
260.493,-4.98,5.1,2.12
260.53,-3.88,4.47,0.94
260.568,-0.98,5.81,2.2
260.605,-2.43,7.69,-0.59
260.644,-4.94,7.85,0.67
260.681,-5.73,11.57,4.67
260.72,-6.24,14.36,5.69
260.758,-5.77,12.04,4.47
260.797,-1.33,12.16,12.91
260.836,-0.08,5.61,3.88
260.874,-2.55,7.37,4.04
261.024,-3.14,3.02,1.96
261.061,-2.43,2.59,1.14
261.099,-5.02,6.43,4.28
261.136,-5.18,9.06,-1.18
261.175,-4.43,7.92,4.24
261.212,-5.06,9.34,4.51
261.25,-7.73,9.18,3.1
261.287,-7.92,10.28,6.63
261.326,9.65,7.88,4.47
261.362,-1.73,10.47,4.94
261.401,-7.26,11.96,9.61
261.44,-3.18,7.3,6.59
261.477,-2.31,6.59,1.57
261.666,-5.49,7.1,0.82
261.703,-6.24,8.9,3.37
261.741,-5.65,14.24,8.16
261.779,-5.65,11.61,2.04
261.818,-2.31,13.38,10.63
261.857,-1.14,6.86,12.2
261.896,-2.79,5.73,0.86
261.933,-3.92,5.37,2.04
261.971,-3.06,5.49,5.02
262.008,-3.37,8.2,7.26
262.046,-2.12,6.71,5.18
262.083,-3.06,3.61,1.14
262.121,-4.82,5.45,4.08
262.158,-6.55,6.2,2.94
262.308,-8.87,9.92,1.77
262.346,-6.75,11.73,6.32
262.384,-1.02,8.51,11.02
262.423,-3.41,9.38,5.06
262.46,-6.67,11.65,8.12
262.499,-2.79,8.47,5.45
262.536,-2.43,6.94,1.53
262.574,-3.92,4.82,1.26
262.611,-4.04,4.04,0.82
262.649,0.31,5.92,3.18
262.685,-2.55,8.04,0.2
262.723,-5.88,7.1,0.2
262.76,-6.94,7.85,0.86
262.798,-5.53,13.81,7.1
262.913,-2.12,8.94,12.24
262.952,-2.82,5.81,4.86
262.989,-3.57,5.73,1.29
263.027,-2.67,5.57,2.67
263.064,-2.63,7.57,4.82
263.102,-1.29,6,5.92
263.14,-2.67,3.61,1.73
263.177,-5.1,5.02,3.49
263.215,-12.75,7.53,2.55
263.253,-7.53,8.28,4
263.291,-3.53,8.39,4.12
263.328,-4.43,10.16,5.02
263.367,-7.81,10.83,4.08
263.405,-4.43,8.75,9.89
263.443,-2.16,7.92,7.3
263.48,-3.88,10.08,5.41
263.595,-2.59,6.04,1.1
263.632,-4.51,4.43,1.41
263.67,-4,5.06,1.8
263.707,-0.55,6.04,2.47
263.745,-2.43,7.65,-0.16
263.783,-5.84,7.1,0.35
263.821,-5.49,11.02,5.1
263.859,-6.24,15.06,7.06
263.898,-7.06,11.65,2.75
263.936,-0.67,13.61,9.92
263.975,-0.16,6.71,8.63
264.012,-1.92,6.04,3.96
264.05,-3.33,6.79,2.63
264.087,-3.14,6.9,5.22
264.125,-3.14,7.69,5.92
264.162,-1.92,4.47,3.45
264.2,-2,2.86,0.59
264.237,-4.9,6.12,4.39
264.275,-7.34,7.88,-3.1
264.313,-5.96,7.69,3.02
264.351,-2.94,8.28,4.16
264.388,-5.96,9.92,3.26
264.426,-7.92,10.75,5.3
264.465,-2.28,7.96,9.61
264.502,-1.65,8.16,5.41
264.539,-3.26,10.63,6.71
264.578,-5.69,10.32,6.79
264.617,-3.49,7.61,2.43
264.654,-4.24,6.12,2.59
264.692,-4.51,5.18,1.92
264.729,-1.57,5.37,2.04
264.881,-4.2,13.38,7.49
264.92,-6.08,13.89,2.47
264.958,-3.61,12.75,7.57
264.997,-3.37,10.2,11.22
265.036,-3.22,5.33,3.84
265.074,-3.02,6.28,2.79
265.111,-4,6.55,5.02
265.149,-4.12,7.49,5.37
265.186,-1.53,5.69,5.06
265.224,-2.35,3.37,0.82
265.261,-4.2,5.49,3.53
265.299,-8.63,9.18,2.82
265.336,-6.9,8.75,4.04
265.374,-4,8.32,3.65
265.487,-5.33,10.4,12.08
265.527,0.12,8.83,4.59
265.563,-3.33,10.87,3.57
265.602,-5.73,10.71,7.41
265.641,-4.04,7.18,5.73
265.678,-1.53,5.77,1.49
265.716,-3.49,4,0.47
265.753,-3.53,4.04,1.41
265.791,-1.88,6.04,1.8
265.828,-2.2,9.45,0.78
265.866,-4.28,7.37,0.43
265.903,-5.61,10.83,4.79
265.942,-6.63,13.81,6.04
265.98,-7.45,10.47,0.04
266.019,-3.41,13.14,9.65
266.132,-3.61,6.2,0.94
266.17,-3.41,6.39,4.71
266.207,-4.79,7.96,7.73
266.245,-1.88,6.28,4.75
266.282,-1.92,3.65,1.37
266.32,-4.12,4.9,3.06
266.357,-12.98,-1.33,9.77
266.397,-6.47,10.2,0.35
266.435,-4.59,9.18,5.3
266.473,-6.16,9.06,3.22
266.51,-6.94,11.73,3.37
266.549,0.27,8.71,15.06
266.586,-3.06,8.36,8.43
266.624,-2.75,10,8.36
266.662,-2.28,8.83,5.22
266.775,-3.88,5.77,2.98
266.812,-0.31,4.98,1.65
266.85,-2.75,5.61,-0.86
266.888,-4.12,-6.67,1.57
266.927,-5.06,7.81,1.92
266.964,-3.77,11.26,5.18
267.003,-5.02,14.36,3.73
267.042,-7.3,11.18,1.06
267.08,-2.43,11.3,10.24
267.12,-0.94,6.71,9.18
267.157,-2.98,6.51,4.63
267.195,-3.1,5.3,3.06
267.232,-3.53,5.45,3.06
267.27,-4.51,7.73,8.43
267.42,-5.53,6.67,3.45
267.457,-5.45,8.16,3.73
267.495,-4.94,9.18,4.71
267.532,-6.59,9.38,4.08
267.57,-8.98,10.59,2.16
267.608,-4.59,9.69,9.02
267.646,0.59,9.45,10.94
267.683,-3.57,11.3,7.22
267.722,-5.02,9.85,7.41
267.759,-1.96,7.69,2.16
267.797,-2.98,6.51,1.06
267.834,-4.55,4.98,1.8
267.872,-3.06,4,1.1
267.909,-1.29,6,2.24
268.061,-5.88,14.79,6.16
268.1,-5.45,11.45,1.61
268.138,-2.43,12.79,11.14
268.178,-1.37,6.55,7.3
268.216,-3.06,5.69,3.84
268.253,-2.67,5.02,2.16
268.291,-3.26,6.94,4.28
268.328,-3.53,8.39,6.32
268.366,-2.63,5.81,4.86
268.403,-2.67,3.02,1.29
268.441,-5.33,5.96,3.3
268.478,0.24,6.79,-5.22
268.516,-6.08,8.94,3.92
268.553,-3.41,8.75,4.43
268.591,-6.12,9.61,2.59
268.704,0.9,6.2,11.18
268.742,-2.67,10.47,6.39
268.78,-4.67,10.36,7.37
268.819,-2.94,7.22,2.98
268.856,-4.24,5.84,1.88
268.894,-5.1,5.33,1.61
268.931,-3.26,5.37,1.45
268.969,-2.51,6.2,-0.04
269.007,-4,7.45,-0.43
269.046,-5.81,8.87,1.69
269.083,-4.04,13.38,8.39
269.122,-4.35,13.3,2.39
269.16,-6.75,12,2.08
269.199,-2.86,11.69,11.81
269.313,-2.28,5.84,3.18
269.351,-2.51,8.39,5.77
269.388,-2.16,6.51,6.35
269.426,-3.45,4.35,3.26
269.463,-4.71,4.08,1.84
269.501,-6.94,6.75,2.94
269.538,-5.1,7.96,5.49
269.576,-3.22,8.71,4.75
269.613,-3.69,9.41,4.9
269.651,-7.85,10.51,3.77
269.689,-5.73,10.98,9.02
269.728,0.12,8,6.24
269.764,-1.37,8.39,5.06
269.802,-5.14,11.69,7.92
269.841,-4.35,8,5.37
269.991,-1.22,5.61,1.96
270.028,-2.24,7.45,0.55
270.066,-4.51,6.98,0
270.103,-4.98,8.94,3.3
270.141,-4.43,14.12,6.63
270.179,-6.79,10.87,0.9
270.218,-4.59,11.02,4.63
270.256,-0.86,11.49,15.1
270.296,-1.88,7.1,6.75
270.333,-2.28,6.43,2.9
270.371,-3.77,6.79,0.75
270.408,-5.3,7.14,4.47
270.446,-2.2,5.88,5.81
270.483,-1.29,4.67,3.73
270.596,-6.71,8.08,3.69
270.633,-5.26,8.94,4.79
270.671,-4.79,8.79,3.41
270.708,-7.14,9.57,2.16
270.746,-5.61,10.83,7.53
270.784,-2.39,7.26,8.28
270.822,-2.79,9.14,5.26
270.859,-5.33,14.32,2
270.898,-4.51,8.16,5.96
270.935,-2.71,7.88,1.65
270.973,-4.43,5.61,1.33
271.01,-5.06,4.82,1.88
271.048,-2.67,4.79,0.98
271.085,-1.69,5.92,-0.71
271.124,-3.57,8.2,0.12
271.237,-6.08,13.14,1.45
271.276,-5.3,13.34,5.61
271.314,-2.82,9.92,12.51
271.353,-3.8,5.88,3.57
271.391,-3.22,5.02,1.77
271.428,-2.71,5.26,3.3
271.466,-2.98,8.08,5.61
271.503,-2.12,7.14,5.81
271.541,-2.9,3.33,1.45
271.578,-3.92,4.35,1.8
271.616,-8.55,9.57,-1.26
271.654,-6.28,8.55,4.79
271.692,-3.88,7.92,4.08
271.729,-5.06,9.57,4.55
271.767,-8.98,10.36,4.08
271.805,-8.24,10.12,7.45
271.844,-2.24,9.14,8.12
271.881,1.1,11.61,2.59
271.919,-8.47,11.34,7.69
271.957,-5.26,8.04,2.86
271.995,-1.22,5.06,2.47
272.032,-3.3,4.24,0.04
272.07,-3.8,4.51,2
272.107,-1.69,6.55,1.65
272.145,-2.24,7.53,-0.08
272.183,-6.55,7.18,-0.16
272.222,-6.59,11.41,4.47
272.26,-6.94,14.08,8.16
272.299,-6.24,9.81,0.47
272.336,-4.28,14.83,14
272.376,-1.49,6.75,10.94
272.414,-1.8,5.53,1.18
272.527,-3.49,8.16,7.85
272.564,-2.04,6.39,2.94
272.602,-2.28,2.39,0.82
272.639,-8.24,6.2,0.59
272.677,-7.96,7.85,3.37
272.714,-5.65,8.47,5.1
272.752,-2.67,8.55,4.94
272.789,-6.12,8.87,2.24
272.827,-9.34,10.63,3.77
272.866,-3.22,8.12,10.12
272.904,0.39,9.38,6.98
272.941,-4.39,12.2,6.2
272.979,-7.96,10.67,7.18
273.018,-2.39,7.65,3.1
273.055,-3.06,5.49,0.12
273.168,-1.53,7.02,0.75
273.205,-3.3,8.32,-2.31
273.244,-7.34,6.9,0.31
273.281,-5.53,14.67,8.04
273.32,-6.12,13.34,2.2
273.358,-3.49,11.69,4.24
273.397,-2.47,11.14,14.95
273.436,-3.84,6.59,5.49
273.474,-2.31,6.16,1.18
273.511,-2.63,6.59,2.86
273.549,-4.24,7.92,6.28
273.586,-2.55,6,4.2
273.624,-2.9,3.49,0.24
273.661,-2.04,3.73,2.55
273.699,-2.9,4.9,8.39
273.812,-6.12,8.98,1.77
273.85,-7.41,11.34,4.24
273.888,-3.14,10.2,9.26
273.927,-3.65,9.14,5.77
273.964,-4.51,11.3,7.61
274.003,-3.57,9.92,5.33
274.041,-2.86,7.57,1.37
274.078,-5.1,6.51,2.59
274.116,-5.18,5.41,2.2
274.153,-2.08,4.86,0.78
274.191,-1.96,5.96,-0.55
274.229,-5.22,8.24,-1.84
274.268,-6.71,7.57,0.55
274.305,-4.35,13.42,7.37
274.46,-3.57,5.96,5.06
274.498,-3.1,5.88,1.1
274.535,-2.63,7.06,4.08
274.573,-3.88,8,6.67
274.61,-2.39,6.63,5.53
274.648,-2.2,3.8,2.2
274.685,-3.26,4.51,2.24
274.723,-9.85,9.49,-6.83
274.761,-7.34,8.39,2.86
274.799,-3.84,8.98,3.02
274.836,-3.88,9.18,3.69
274.874,-8.39,10.12,3.14
274.912,-6.94,9.96,8.08
274.95,-0.27,8.98,5.53
274.987,-2.86,10.55,3.8
275.102,-2.39,6.83,-0.04
275.141,-3.84,5.3,0.71
275.178,-3.45,5.22,2.75
275.216,-1.45,6.24,1.8
275.253,-3.22,6.98,-0.9
275.292,-5.14,7.26,-0.12
275.33,-5.77,9.57,3.96
275.368,-6,14.32,5.96
275.406,-6.28,12.36,3.3
275.445,-2.75,14.91,13.22
275.484,-3.02,6.9,3.84
275.522,-4.82,4.71,0.98
275.559,-2.39,6.83,6.32
275.597,-2.04,9.14,7.1
275.709,-3.77,3.26,1.73
275.747,-10,-3.3,0
275.786,-5.84,8.2,4.94
275.824,-5.1,6.94,2.55
275.861,-3.06,8.51,4.39
275.899,-6.98,9.38,2.82
275.936,-8.39,10.83,4
275.975,-0.24,7.3,9.06
276.012,1.65,8.75,7.34
276.049,-3.65,10.75,4.43
276.087,-7.53,10.59,6.83
276.126,-4.08,7.96,2.28
276.163,-4.16,6.24,1.37
276.201,-4.39,4.82,1.33
276.238,-2.08,5.18,1.14
276.352,-6.67,7.34,0.35
276.389,-5.06,13.1,5.65
276.428,-7.96,13.42,2.47
276.467,-5.45,12.98,4.94
276.505,-2.67,13.22,13.22
276.545,-2.59,5.61,5.18
276.582,-2.04,5.65,2.35
276.62,-2.55,7.1,3.96
276.657,-3.92,7.69,6.12
276.695,-2.28,6.35,5.57
276.732,-2.31,4.86,3.02
276.77,-3.06,3.84,1.33
276.807,-5.81,6.79,3.8
276.845,-6.94,8.24,4.16
276.882,-5.26,8.55,4.59
276.996,-4.63,11.26,6.55
277.034,-2.75,9.57,9.65
277.072,-3.1,9.85,7.45
277.109,-2.67,8.39,5.69
277.147,-5.02,7.3,0.63
277.184,-4.55,6.94,2.75
277.222,-4.94,7.1,4.55
277.259,-3.3,5.06,0.71
277.297,-2.35,5.37,-0.51
277.335,-3.61,6.79,-0.98
277.374,-5.96,8,0.82
277.411,-5.37,9.38,2.79
277.449,-2.79,14,5.81
277.487,-5.26,12.2,3.06
277.526,-3.96,14.63,13.06
277.641,-4.39,5.3,1.61
277.678,-3.33,6.86,4.71
277.716,-2.08,8.51,6.08
277.753,-1.18,5.96,4.24
277.791,-2.51,3.06,1.26
277.828,-3.92,4.86,3.45
277.866,-8.94,4.35,4.86
277.903,-8.08,8.94,4.16
277.941,-3.92,8.2,4.08
277.978,-5.02,8.94,4
278.016,-7.57,9.06,2.86
278.053,-6.75,10.51,6.39
278.092,-1.73,8.51,9.18
278.129,-1.45,9.96,6.9
278.167,-7.22,12.94,9.49
278.281,-4.04,4.98,-0.86
278.32,-5.33,4.79,2.04
278.357,-3.92,5.77,1.26
278.395,-2.31,6.98,-0.94
278.433,-3.88,6.98,-0.12
278.472,-6.24,7.81,1.41
278.509,-5.37,12.24,6.24
278.548,-5.84,14.2,3.73
278.586,-5.84,11.22,2.2
278.625,-3.1,12.16,15.14
278.664,-1.37,6.71,8.16
278.702,-1.92,5.22,0.43
278.739,-4.39,5.61,1.84
278.777,-5.53,7.22,5.02
278.889,-3.18,4.43,1.22
278.927,-6.59,6.47,7.02
278.964,-8.12,4.24,-5.49
279.003,-6.2,7.92,2.86
279.041,-2.98,8.12,4.08
279.078,-5.69,9.18,2.98
279.115,-8.83,9.96,3.1
279.153,-3.37,8.94,9.96
279.191,2.43,8.63,7.37
279.227,-3.45,10.67,5.96
279.266,-7.37,11.73,9.77
279.304,-3.84,8.16,2.67
279.342,-2.71,6.35,1.37
279.379,-4.59,4.79,1.92
279.569,-5.1,9.26,2.82
279.606,-4.39,12.98,7.61
279.645,-6.43,13.22,3.65
279.683,-4.71,14.16,8.36
279.722,-1.26,8.2,12
279.76,-2.47,5.02,1.26
279.798,-4.35,6.43,2.28
279.835,-2.9,6.28,5.26
279.873,-2.43,7.96,6.24
279.91,-0.59,6.83,5.61
279.948,-2.12,2.82,2.16
279.985,-10.36,5.33,1.22
280.024,-7.45,7.1,2.98
280.061,-7.06,8,3.18
280.174,-8.12,8.87,2.08
280.211,-7.69,9.89,5.1
280.249,-0.9,7.61,8.98
280.286,1.53,8.83,4.67
280.323,-6.2,13.77,7.49
280.361,-8.32,9.77,6.79
280.399,-2.86,7.69,2
280.436,-2.12,5.88,1.22
280.474,-5.22,4.71,1.96
280.511,-4.75,5.26,1.26
280.549,2,6.83,4.67
280.585,-2.31,7.26,-0.71
280.624,-4.47,7.41,0.27
280.661,-6.39,9.96,3.77
280.699,-6.24,14,6.9
280.815,-0.12,6,4.9
280.853,-2.9,3.02,0.63
280.89,-3.06,5.14,2.82
280.928,-3.37,7.49,6.08
280.965,-1.8,8.39,6.75
281.003,-2.04,5.1,3.37
281.04,-3.18,3.57,1.88
281.078,-7.34,0.12,4.75
281.115,-7.45,7.85,3.69
281.153,-5.49,6.86,1.84
281.19,-2.79,8.28,4.28
281.228,-4.43,9.22,4.51
281.265,-7.57,8.63,2.59
281.303,-6.9,11.1,6.47
281.342,-1.29,7.45,8.59
281.493,-2.86,7.37,1.49
281.53,-4.86,5.57,2.39
281.568,-5.06,4.86,1.45
281.605,-0.63,5.96,1.73
281.643,-1.92,6.79,0.35
281.68,-2.86,7.65,0.59
281.718,-5.06,7.88,1.14
281.755,-4.63,10.98,4.12
281.794,-5.81,13.81,5.3
281.832,-6.2,10.87,1.84
