NAME:,walk_5_1.csv,,
EXPERIMENT TIME:,22-05-22 20:10,,
ACTIVITY TYPE:,Walking,,
COUNT OF ACTUAL STEPS,118,,
   ,,,
Time [sec],ACC X,ACC Y,ACC Z
213.009,-5.14,9.06,0.2
213.047,-4.9,9.02,0
213.161,-4.75,10.94,1.65
213.2,-3.8,9.81,3.14
213.237,-3.84,8.63,3.69
213.275,-5.02,7.45,4
213.312,-5.02,7.34,4.24
213.35,-4.43,8.67,3.02
213.387,-4.71,8.83,2.59
213.425,-4.39,6.32,2
213.462,-3.92,5.41,1.84
213.5,-3.88,7.3,3.45
213.537,-5.81,7.73,4
213.575,-6.94,7.41,2.51
213.612,-6.28,6.9,2.04
213.65,-5.65,7.53,1.33
213.687,-5.06,9.81,1.61
213.725,-7.06,10.32,1.92
213.878,-0.78,10.04,4.31
213.916,-2.12,10.4,4.2
213.955,-5.06,9.61,3.02
213.992,-5.1,7.14,1.88
214.03,-3.84,5.49,1.65
214.067,-2.31,5.22,1.1
214.105,-1.06,5.69,0.08
214.142,-3.49,5.02,-1.22
214.181,-6.28,7.53,-0.55
214.22,-6.9,11.1,2.28
214.258,-7.65,13.42,1.06
214.297,-8.98,12.83,-0.35
214.336,-6.28,12.43,2.59
214.526,-5.1,5.49,0.94
214.563,-3.49,6.04,3.33
214.601,-1.96,4.94,3.37
214.638,-2,5.02,3.18
214.676,-5.1,8.28,3.3
214.713,-6.39,7.85,3.61
214.751,-7.26,7.81,1.1
214.788,-6.47,10.16,2.67
214.827,-8.87,11.3,2.47
214.865,-8.87,11.45,5.1
214.904,-3.37,8,5.22
214.941,-0.86,9.02,3.88
215.131,-3.84,5.14,0.43
215.169,-3.02,6.55,0.55
215.206,-3.65,6.9,-0.43
215.245,-5.26,6.98,-1.06
215.283,-5.96,7.69,0.63
215.321,-6.79,12.75,2.04
215.359,-8.9,13.3,1.37
215.398,-7.61,15.14,4.35
215.436,-4.04,10.63,3.53
215.475,-2.86,6.98,2.43
215.512,-3.57,7.53,5.65
215.55,-3.65,7.81,4.12
215.587,-3.02,8.36,2.16
215.625,-2.71,6.39,1.41
215.662,-2.86,3.92,1.73
215.7,-5.1,4.86,1.37
215.812,-5.53,7.77,1.96
215.85,-5.92,9.22,1.61
215.887,-8,11.06,1.88
215.926,-8.9,11.73,2.43
215.964,-5.1,9.77,6.16
216.002,-1.77,8.08,6.94
216.039,-1.77,10.67,4.9
216.078,-6.43,13.1,4.9
216.116,-3.84,8.43,2.9
216.154,-4.63,5.88,0.12
216.191,-5.37,4.28,-0.04
216.23,-4.35,5.22,0.24
216.267,-2.63,7.02,0.39
216.382,-7.34,12.4,1.53
216.421,-10.16,12.43,1.26
216.46,-6.94,13.53,0.75
216.499,-1.88,14.28,6.08
216.537,-2,9.22,4.59
216.575,-2.82,7.22,4.51
216.612,-4.31,6.24,4.51
216.65,-3.26,7.96,2.47
216.687,-2.55,8.28,2.43
216.725,-2.47,4.94,3.33
216.762,-3.53,3.22,2.71
216.8,-5.77,4.86,1.69
216.837,-5.92,7.41,2.98
216.875,-6.55,7.81,2.86
216.912,-7.26,8.16,0.75
217.065,-1.26,8.2,6
217.103,-2,10.32,4.2
217.141,-5.18,12.79,5.37
217.18,-3.73,7.81,2.59
217.217,-4.24,6.04,0.63
217.255,-5.26,4.86,0.35
217.292,-3.57,5.22,-0.04
217.331,-1.26,6.71,-4.79
217.37,-4.55,7.06,-0.86
217.408,-6.94,10.08,1.29
217.447,-8.24,12.83,1.45
217.485,-10.4,12.71,-0.59
217.526,-4.59,14,4.98
217.564,-2.12,14,8.16
217.678,-3.8,5.37,1.53
217.715,-3.61,8.04,2.47
217.753,-1.37,6.51,4.08
217.79,-1.8,3.92,1.69
217.828,-4.59,4.39,1.69
217.865,-7.49,7.49,2.86
217.903,-5.69,9.34,3.14
217.94,-5.84,9.89,2.39
217.978,-7.77,9.96,1.96
218.015,-11.41,11.85,3.41
218.055,-7.37,9.57,5.49
218.092,-0.39,9.22,5.33
218.13,-0.82,11.53,5.02
218.168,-6.28,12.59,5.33
218.207,-2.98,7.3,2.24
218.245,-3.1,5.57,1.1
218.282,-4.39,3.61,-0.12
218.321,-4.43,4.04,-0.24
218.359,-2.79,6.9,-0.63
218.398,-3.88,8,-1.33
218.436,-6.63,11.45,2.43
218.475,-10.87,12.43,1.92
218.514,-8.47,12.51,1.26
218.553,-1.65,16,7.49
218.591,-1.33,9.89,5.77
218.629,-2.79,6.08,2.51
218.666,-4.94,6.16,2.55
218.704,-2.82,6.75,1.88
218.741,-2.9,7.96,3.22
218.779,-2.31,5.06,3.53
218.816,-3.49,3.88,2
218.966,-5.02,10.08,2.43
219.005,-7.92,10.08,-0.24
219.045,-7.65,12,4.82
219.083,-3.37,8.24,6.75
219.121,-1.45,9.85,5.57
219.158,-3.06,12.87,4.75
219.197,-6,10.71,3.02
219.235,-5.41,6.79,1.41
219.273,-6.16,4.08,0.39
219.31,-4.35,3.96,-0.51
219.349,-1.53,5.81,0.35
219.386,-3.69,6.86,-1.88
219.425,-5.92,7.57,0.04
219.462,-8,10.51,1.84
219.501,-8.98,13.89,2.55
219.616,-1.33,7.37,3.92
219.654,-4.35,6.32,1.49
219.691,-4.86,5.92,2.98
219.729,-3.33,7.57,2.9
219.766,-2.59,7.69,3.33
219.804,-1.69,4.31,2.08
219.841,-3.65,3.88,2.2
219.879,-5.14,6.43,1.88
219.916,-5.77,9.06,3.14
219.954,-5.18,10.12,2.12
219.992,-5.92,10.9,2.12
220.031,-9.22,11.49,2.12
220.07,-8.04,10.67,4.98
220.108,-2.31,8.63,6.98
220.223,-3.41,9.34,2.47
220.26,-3.14,5.57,-0.35
220.299,-5.06,3.45,0.47
220.336,-5.06,3.57,-0.27
220.375,-3.37,6.98,-0.16
220.413,-4,8.55,-0.71
220.452,-6.32,8.2,0.04
220.489,-7.69,11.22,1.29
220.528,-8.24,14.47,1.26
220.566,-5.77,14.91,3.41
220.605,-4.2,12.51,6.08
220.643,-2.2,7.53,2.82
220.681,-3.3,6.51,2.98
220.718,-4.04,6.94,3.45
220.756,-3.65,7.92,2
220.906,-6.71,9.02,1.92
220.943,-7.06,8.36,2
220.981,-5.33,7.65,1.96
221.018,-5.53,9.69,2.12
221.056,-8.43,12.59,4.51
221.095,-7.77,11.77,5.41
221.133,-3.18,8.28,5.77
221.171,-1.26,8.87,3.84
221.208,-2.31,10.2,4.86
221.247,-5.49,10.87,4.59
221.285,-3.84,8.04,2.12
221.323,-4.63,5.26,1.49
221.36,-4.47,4.71,0
221.512,-5.49,12.32,3.84
221.551,-8.71,13.38,3.57
221.589,-9.61,9.77,-2.55
221.628,-3.69,14.87,5.06
221.666,-1.1,9.57,10.4
221.705,-3.61,6.71,2.94
221.742,-4.79,5.57,1.02
221.78,-2.79,5.57,0.82
221.817,-2.98,7.22,2.86
221.855,-1.26,6.16,3.73
221.892,-3.02,3.57,1.88
221.93,-7.3,5.45,2.31
221.967,-8.87,8.24,1.29
222.005,-6.94,9.73,2.9
222.042,-6.67,12.12,1.41
222.081,-8.79,10.71,2.79
222.232,-8.32,15.81,7.34
222.271,-4.98,8.67,2.63
222.308,-3.3,6.16,-0.82
222.347,-5.14,4.82,-0.27
222.385,-3.73,5.18,0.16
222.423,-1.92,4.82,-0.78
222.461,-4.2,4.31,-2.2
222.5,-5.49,5.96,-1.18
222.538,-6.2,10.75,0.55
222.577,-8.75,13.26,0.2
222.615,-8,11.18,-1.49
222.655,-2.86,11.92,1.92
222.693,-3.69,18.79,19.65
222.733,-2.12,8.16,4.98
222.771,-6.98,5.26,-0.43
222.809,-3.8,4.16,1.26
222.847,-2.75,8.94,5.65
222.884,-2.2,10.43,5.65
222.923,-1.73,3.96,1.57
222.96,-3.1,1.84,-0.35
222.999,-6.2,6.86,1.18
223.036,-5.81,8.39,4.98
223.074,-6.04,6.86,2.67
223.111,-5.81,8.08,2.86
223.149,-6.9,11.06,2.63
223.187,-10.08,11.06,1.49
223.227,-7.41,9.69,5.77
223.264,-3.06,9.38,6.12
223.302,-2.59,12.51,4.82
223.34,-5.84,13.02,3.73
223.455,-5.22,3.73,-0.35
223.493,-2,5.96,0.16
223.531,-2.59,8.32,-1.77
223.57,-5.02,6.83,-1.37
223.608,-8.9,9.02,0.59
223.646,-11.22,14.04,2.24
223.685,-9.26,11.73,-0.86
223.725,-4.82,14.71,5.1
223.763,-2.86,9.3,7.3
223.801,-4.04,6.28,2.24
223.838,-4.82,6.71,2.12
223.876,-4.55,7.45,1.02
223.913,-5.49,7.53,2.71
223.951,-3.41,5.77,3.88
224.063,-6.98,8.2,3.14
224.101,-7.53,8.16,2.16
224.138,-6.12,8.71,1.29
224.176,-8.67,9.61,0.2
224.213,-9.49,12.24,5.02
224.252,-4.9,9.41,7.22
224.289,-1.33,10.24,5.57
224.328,-2.59,10.9,3.8
224.366,-5.33,10.08,2.71
224.405,-7.65,7.3,4.63
224.442,-5.37,5.45,0.39
224.48,-3.37,6.16,-1.41
224.518,3.02,1.53,-5.33
224.556,-6.2,5.45,1.1
224.593,-7.49,5.92,-2.43
224.709,-6.86,11.34,0.71
224.748,-6.75,16.55,10.4
224.787,-2.16,7.06,5.77
224.825,-3.06,6.51,-0.59
224.863,-4.47,6.79,0.94
224.901,-4.59,7.88,4.04
224.938,-5.3,8.04,4.24
224.976,-3.02,4.24,1.14
225.013,-2,3.77,-1.06
225.052,-6.94,5.49,0.71
225.089,-9.18,8.63,5.33
225.127,-4.98,9.49,2.86
225.164,-4.12,9.85,2.86
225.202,-8.75,8.59,0.98
225.239,-6.59,9.73,7.26
225.354,-8.28,11.96,8.16
225.392,-7.37,6.67,3.06
225.43,-3.3,5.92,-2.04
225.468,-4.28,4.39,-1.33
225.507,-4.28,5.61,1.33
225.545,-3.3,7.53,0.43
225.582,-1.18,7.65,-2.82
225.621,-5.69,6.83,-1.45
225.659,-9.26,11.81,0.9
225.698,-9.26,11.53,1.65
225.736,-5.73,15.02,4.28
225.775,-5.06,12.36,9.69
225.813,-4.9,3.84,-0.31
225.852,-4.55,5.22,-2.04
226.003,-3.37,3.57,-0.67
226.041,-4.71,4.67,-1.26
226.08,-8.87,7.88,3.33
226.117,-6.55,7.57,1.37
226.155,-5.3,8.59,1.69
226.192,-3.77,9.34,1.8
226.23,-7.06,11.1,-1.61
226.27,-5.37,10.71,7.18
226.308,-0.31,8.55,4.31
226.346,-4.79,12.79,2
226.384,-9.77,13.42,3.65
226.423,-7.06,7.34,5.92
226.46,-5.06,6.2,0.27
226.498,-5.18,3.37,0.63
226.649,-5.65,6.98,-0.78
226.687,-7.81,8.59,0.59
226.725,-7.61,14,4.12
226.763,-8,12.51,1.45
226.802,-5.1,16.2,8.67
226.84,-2.67,7.45,5.96
226.878,-5.22,4.71,-0.08
226.916,-2.9,7.85,2.55
226.954,-2.94,9.45,2.94
226.991,-3.73,8.59,3.84
227.029,-3.61,4.82,2.59
227.066,-3.33,2.59,-0.9
227.105,-6.35,6.47,0.86
227.142,-4.39,8.98,-1.69
227.181,-5.18,9.14,4.2
227.218,-5.18,9.18,1.53
227.256,-8.32,10.43,0.31
227.295,-4.9,12.71,9.06
227.333,-1.37,7.96,6.28
227.371,-7.18,12.75,3.26
227.409,-6.28,11.65,6.2
227.448,-4.28,8.2,1.96
227.485,-4.75,7.06,0.2
227.523,-5.96,4.94,0.82
227.56,-4.08,5.02,0.43
227.598,-3.57,6.32,0.47
227.635,-3.41,7.53,-3.37
227.674,-5.14,6.04,-0.59
227.712,-7.85,9.73,0.35
227.75,-8.12,14.67,1.37
227.903,-5.41,6.35,1.06
227.94,-1.77,8.08,3.57
227.978,-3.8,9.34,2.75
228.015,-3.77,6.83,2.67
228.053,-3.65,3.77,0.35
228.09,-4.04,4.82,-0.59
228.129,-6.55,7.61,1.49
228.166,-6.59,8.12,2.82
228.204,-5.92,8.75,2.08
228.241,-6.43,10.32,2.9
228.28,-8.51,10,2.39
228.318,-4.94,10.79,5.53
228.357,-1.73,8.04,4.67
228.395,-4.59,11.85,3.18
228.433,-11.77,12.91,7.81
228.473,-3.57,7.96,0.98
228.586,-4.79,3.88,-0.16
228.625,-2.16,7.69,-0.43
228.663,-3.37,7.81,-2.08
228.702,-7.18,7.1,3.69
228.739,-8.51,12.83,3.33
228.778,-5.96,12.83,1.06
228.816,-6.35,14.87,4.39
228.855,-5.22,9.02,9.18
228.892,-6.43,5.88,0.67
228.93,-4.98,7.41,0.63
228.967,-2.43,9.18,4.47
229.005,-4.59,9.22,6.63
229.042,-2.86,4.98,1.18
229.193,-6.47,10,3.65
229.232,-5.96,8.36,3.18
229.27,-6.59,8.55,0.39
229.307,-7.92,11.61,3.96
229.346,-3.33,10.16,5.45
229.384,-4.28,11.34,3.77
229.423,-5.81,14.83,4.79
229.461,-7.73,9.69,7.1
229.499,-5.02,6.79,1.02
229.536,-5.1,4.98,0.35
229.574,-4.43,4.35,0.24
229.611,-1.61,4.86,1.26
229.649,-2.24,6.16,-1.8
229.687,-4.51,6.9,-2.08
229.726,-6.75,7.45,-0.24
229.764,-7.26,14.4,2.9
229.803,-8.16,10.87,-0.75
229.842,-4.35,15.93,9.85
229.881,-2.94,8.94,11.14
229.92,-5.37,5.65,-2
229.958,-3.69,8.36,1.77
229.996,-2.79,9.65,4.04
230.033,-3.69,9.53,3.02
230.071,-3.69,4.79,1.49
230.108,-3.49,0.75,-1.41
230.147,-6.12,3.88,-1.1
230.185,-6.24,9.81,1.88
230.223,-5.49,16.91,5.65
230.261,-6.79,9.3,1.57
230.299,-8.47,8.47,-1.18
230.337,-4.59,9.92,6.04
230.451,-10.59,11.53,10.28
230.491,-5.53,9.61,1.06
230.529,-2.75,7.18,-1.29
230.567,-4.43,4.51,-1.45
230.606,-3.84,3.73,0.16
230.643,-3.26,8,2.16
230.681,-1.61,5.92,-1.65
230.72,-4.47,5.37,-1.61
230.758,-7.53,12.55,2.24
230.797,-9.45,14.12,1.69
230.835,-7.1,11.65,-0.39
230.875,-9.18,19.89,12.32
230.914,-2.31,7.57,7.61
230.952,-4.08,6.51,-1.1
231.104,-2.35,2.55,-1.61
231.142,-1.69,3.77,2.47
231.18,-5.1,7.41,2.16
231.217,-5.77,9.49,3.22
231.255,-5.22,9.38,3.18
231.292,-6.55,8.04,-0.04
231.331,-8.39,9.77,1.84
231.368,-6.86,11.69,6.28
231.407,-3.18,9.85,3.57
231.445,-3.77,14.55,-1.29
231.484,-9.89,11.65,10.2
231.524,-4.9,10.36,2.31
231.562,-2.94,6.04,-0.82
231.601,-5.49,4.51,0.71
231.753,-4.47,5.81,-0.78
231.791,-8.67,13.38,1.45
231.83,-8.9,13.93,2.24
231.868,-7.53,11.53,-1.45
231.908,-5.14,13.93,8.75
231.947,-4.12,7.1,4.71
231.984,-3.37,8.55,1.37
232.022,-3.45,7.18,0.2
232.059,-3.73,7.22,3.3
232.097,-3.49,7.77,3.84
232.134,-2.82,5.26,-0.51
232.173,-5.33,3.3,1.88
232.21,-7.92,6.79,2.04
232.248,-7.45,8.75,2.31
232.4,-4.47,9.22,6.86
232.437,-0.04,10.24,-2.79
232.477,-5.73,13.1,0.12
232.515,-8.12,8.87,4.98
232.553,-4.86,7.14,1.37
232.59,-4.08,4.9,-1.92
232.629,-5.33,4.08,-0.27
232.667,-3.77,5.61,-0.27
232.706,-2.47,7.06,-1.61
232.744,-4.31,7.65,-1.77
232.783,-6.71,9.18,0.86
232.821,-9.92,14.63,3.02
232.859,-7.73,11.02,-0.08
232.899,-7.34,20.01,11.57
233.014,-4.75,7.3,-1.26
233.053,-5.06,7.53,4.51
233.09,-5.06,6.94,3.61
233.128,-3.14,4.2,-0.71
233.166,-4.82,2.94,0.71
233.204,-6.63,5.84,1.06
233.241,-6.28,8.79,2.98
233.279,-5.06,9.77,2.12
233.316,-6.32,8.98,-0.12
233.355,-7.65,10.24,3.8
233.393,-3.1,10.63,6.51
233.432,-1.18,10.9,2.51
233.471,-6.24,11.73,-0.16
233.51,-8.28,10.08,5.73
233.549,-3.77,6.94,-0.67
233.664,-2.79,6.9,-0.08
233.703,-2.94,7.73,-0.67
233.741,-5.73,6.47,-2
233.78,-7.77,11.18,-0.08
233.819,-9.69,15.26,2.39
233.858,-7.41,11.41,1.1
233.897,-4.47,16.63,11.69
233.936,-3.45,5.61,4.67
233.974,-6.08,4.55,-1.29
234.012,-2.51,9.41,1.29
234.05,-4.55,9.77,7.14
234.087,-2.79,6.39,4.35
234.125,-4.43,1.8,0.86
234.162,-4.71,1.37,1.37
234.275,-6,10.51,3.57
234.313,-7.49,7.37,-1.18
234.352,-11.41,8.12,-1.14
234.391,-6.63,13.18,9.3
234.43,1.37,10.67,3.33
234.467,-4.2,14.04,3.26
234.506,-10.04,13.38,6.94
234.546,-3.37,8.36,0.51
234.583,-2.24,5.88,-1.49
234.622,-4.12,4.12,0.43
234.659,-3.69,4.04,1.65
234.697,-2.35,5.53,0.24
234.734,-4,6.63,-2.86
234.773,-6.32,6.43,-2.2
234.811,-7.49,11.69,1.77
234.927,-5.49,14.2,11.61
234.966,-3.49,8.39,5.33
235.004,-3.96,7.45,-1.96
235.042,-4.94,6.86,1.41
235.08,-5.06,6.9,4.47
235.117,-4.47,6.35,4
235.155,-1.84,2.63,1.14
235.192,-2.86,5.06,2.55
235.23,-6.16,9.02,2.28
235.267,-5.49,8.36,1.18
235.305,-6.43,7.26,2.63
235.342,-8.55,8.71,0.67
235.38,-8.2,10.75,3.57
235.418,-2.98,10.67,8.83
235.457,-2.75,11.57,1.96
235.573,-4,6.67,0.12
235.61,-4,4.9,-2
235.649,-4.51,4.08,0.08
235.686,-3.06,5.26,1.57
235.724,-3.14,7.02,-0.35
235.762,-4.86,6.98,-2.35
235.801,-7.06,7.57,-0.04
235.839,-7.41,13.69,3.53
235.878,-8.04,13.22,1.06
235.916,-8.28,18.79,10
235.956,-1.45,7.22,5.06
235.993,-4.98,3.8,-1.92
236.032,-3.69,7.34,2.79
236.07,-2.94,10.36,5.81
236.259,-7.85,7.73,3.06
236.297,-5.53,8.79,2.55
236.334,-3.96,9.18,2.86
236.372,-7.77,8.28,-0.12
236.41,-9.53,12.75,5.73
236.449,-2.9,11.3,7.53
236.487,-4.51,12.47,4.12
236.526,-5.37,12.32,4.9
236.564,-6.67,6.59,2.67
236.602,-5.53,5.88,-0.2
236.64,-5.92,5.26,1.41
236.678,-3.65,4.08,-0.2
236.716,-0.9,5.3,0.31
236.754,-5.37,7.37,-2.35
236.792,-7.22,7.1,-1.1
236.831,-7.88,10.24,1.73
236.869,-6.32,16.28,2.55
236.908,-6.51,14.95,3.77
236.947,-7.41,16.12,11.22
236.986,-2.31,6.59,3.41
237.024,-4.63,3.96,-3.18
237.062,-3.18,7.34,3.41
237.1,-3.92,9.53,5.57
237.137,-2.16,7.26,3.18
237.175,-1.84,3.61,0.75
237.212,-4.59,3.22,-0.55
237.251,-8.16,5.53,1.1
237.288,-9.22,8.08,1.8
237.326,-5.69,10,4.67
237.364,-7.65,9.22,0.12
237.402,-9.06,10.24,1.8
237.516,-6.08,12.63,1.18
237.555,-10.36,12.51,7.53
237.595,-4.08,7.14,-0.94
237.633,-2.86,5.84,-2.86
237.672,-5.06,4,0.39
237.709,-2.82,4.86,1.02
237.747,-1.92,6.28,-0.98
237.785,-3.26,6.63,-2.12
237.824,-7.02,8.16,0.2
237.861,-7.88,13.26,4.43
237.9,-7.88,11.06,-1.49
237.939,-6.98,18.99,8.51
237.978,-2.43,8.83,10.98
238.016,-5.22,4.12,-2.43
238.055,-3.33,5.18,-1.18
238.093,-3.73,8.87,4.79
238.131,-3.3,9.14,7.34
238.168,-2.82,6.32,2.71
238.206,-2.71,1.69,-1.29
238.244,-6.86,4.79,0.9
238.282,-10.2,10.16,3.41
238.322,-5.49,9.49,3.1
238.359,-4.51,10.2,2.55
238.398,-9.34,8.87,0.75
238.435,-8.59,10.63,4.79
238.474,-0.9,9.85,6.51
238.511,-1.18,12.59,5.18
238.55,-9.26,13.1,5.96
238.588,-4.86,7.37,1.53
238.626,-4.12,5.88,-0.12
238.816,-6.98,6.94,-1.18
238.855,-7.61,14.28,3.73
238.893,-9.41,11.73,-0.82
238.933,-6.35,14.28,3.65
238.972,-2.79,12.24,13.89
239.011,-3.73,5.81,1.18
239.049,-3.49,5.37,-2.63
239.087,-4.71,6.75,-0.12
239.126,-5.02,7.61,8.79
239.163,-2.55,7.45,4.47
239.201,-2.43,3.88,-0.31
239.239,-5.18,3.96,0.67
239.277,-8.55,7.85,2.08
239.428,-8.32,12.08,5.3
239.466,-2.08,10.08,7.06
239.505,-2.16,11.73,3.22
239.543,-7.45,13.73,4.2
239.582,-7.61,9.57,4.12
239.619,-4.67,6.43,-1.84
239.658,-5.3,4.43,-0.43
239.697,-5.41,4.31,0.16
239.734,-2.71,5.49,0.12
239.772,-3.14,7.22,-2.28
239.81,-4.71,6.9,-1.73
239.849,-7.45,7.06,0.47
239.886,-7.22,14.98,2.79
239.925,-8.87,11.73,0.75
240.04,-2.94,5.02,-1.41
240.079,-3.65,7.02,0.78
240.116,-4.51,8.47,4.43
240.154,-3.96,8.39,5.53
240.191,-2.67,5.18,1.22
240.229,-3.18,2.08,-0.35
240.267,-6.71,4.75,1.77
240.305,-8.59,9.14,1.88
240.342,-6.51,8.87,1.96
240.38,-5.49,8.83,2.12
240.417,-8.71,10.32,1.65
240.456,-4.9,11.65,8.12
240.494,-0.67,9.06,5.81
240.532,-5.49,13.06,3.88
240.571,-6.67,9.92,7.73
240.684,-6.08,4.86,-0.16
240.723,-4.59,5.77,0.86
240.76,-3.1,6.24,-1.06
240.799,-4.79,5.81,-2.31
240.837,-7.06,5.81,-1.14
240.876,-6.98,12.87,3.37
240.914,-8.59,13.61,0.39
240.953,-6.28,15.49,4.2
240.991,-2.9,11.26,11.65
241.031,-4.24,5.61,0.9
241.068,-4.63,5.53,-0.94
241.107,-2.75,8.59,2.59
241.144,-3.53,9.92,5.02
241.182,-2.59,6.86,3.14
241.219,-2.63,2.67,0.51
241.369,-5.69,9.49,1.84
241.407,-7.65,8.51,-0.2
241.446,-7.45,11.22,4.82
241.484,-1.8,10.59,7.81
241.523,-2.82,11.57,2.51
241.561,-9.1,12.87,6.59
241.6,-6.98,7.49,2.2
241.637,-4.35,7.14,-0.63
241.676,-4.04,5.53,-0.86
241.714,-4.75,4.51,0.04
241.752,-3.84,4.82,-0.43
241.79,-5.02,5.73,-2.28
241.829,-7.45,6.35,-1.49
241.867,-7.53,13.34,4.16
241.984,-3.3,11.02,12.04
242.024,-4.35,4.79,-0.24
242.062,-2.71,5.22,-1.49
242.101,-2.98,8.36,2.08
242.138,-6.16,7.85,9.45
242.176,-4.12,7.26,4.51
242.213,-3.22,2.59,-1.1
242.252,-6.2,2.43,0.47
242.289,-9.77,9.3,1.61
242.327,-7.18,8.79,1.53
242.364,-4.47,9.61,1.8
242.402,-7.77,8.98,0.24
242.439,-6.98,11.81,5.81
242.478,-0.55,10.16,5.77
242.632,-4.55,6.12,-1.53
242.671,-4.67,3.77,-1.02
242.709,-4.86,3.53,-0.59
242.748,-2.9,6.55,-0.24
242.786,-3.14,7.92,-1.84
242.825,-6.83,6.98,-1.33
242.863,-7.65,14.08,2.43
242.902,-7.37,13.61,0.47
242.94,-6.32,15.61,7.81
242.979,-4.82,10.79,8.75
243.017,-4.43,4.35,-0.43
243.056,-4.55,5.88,-0.51
243.094,-2.86,9.61,3.57
243.132,-3.61,9.69,4.86
243.246,-4.47,3.57,0.63
243.283,-7.45,8,0.51
243.321,-6.71,9.02,2.28
243.358,-6.24,9.02,1.69
243.396,-8.67,9.26,0.55
243.433,-8.08,12.75,5.26
243.472,-0.12,11.45,5.45
243.51,-4.31,12.83,2.98
243.549,-8.28,13.96,6.35
243.587,-4.2,6.75,1.65
243.625,-4.35,5.1,-1.92
243.663,-5.69,3.77,0.31
243.701,-4.63,4.47,-0.51
243.739,-2.12,6.12,-0.47
243.778,-4.24,6.08,-3.22
243.931,-5.3,19.97,12.55
243.971,-1.96,7.14,6.43
244.008,-4.39,2.79,-1.92
244.047,-2.08,7.92,1.1
244.084,-3.53,10.24,5.92
244.123,-2.39,10.12,6.71
244.161,-2.43,3.53,0.71
244.199,-3.02,0.12,-1.61
244.237,-7.06,5.1,0.75
244.275,-5.92,8.16,2.71
244.312,-7.69,9.65,2.16
244.35,-5.81,8.79,1.92
244.541,-7.92,10.87,6.75
244.58,-4.24,7.49,-1.18
244.618,-3.41,3.8,-2.79
244.657,-6.08,4.08,0.63
244.694,-4.08,4.31,-0.55
244.733,-1.69,6.47,-0.67
244.772,-5.02,7.77,-2.08
244.81,-7.61,8.83,1.8
244.848,-8.63,13.85,2.16
244.886,-7.45,12.4,1.22
244.925,-6.71,18.24,10.75
244.964,-2.63,8.28,6.39
245.002,-4.28,3.65,-0.78
245.04,-3.61,4.55,-0.51
245.079,-2.16,9.22,3.92
245.191,-3.3,2.71,-0.24
245.23,-6.86,4.86,1.06
245.267,-9.06,8.16,2.16
245.305,-6.16,8.16,1.65
245.342,-5.06,9.14,1.88
245.38,-8.87,10.16,0.82
245.418,-6.98,12.79,6.67
245.457,-1.22,9.69,5.88
245.494,-2.55,11.45,4
245.533,-7.69,13.06,7.49
245.572,-5.65,7.45,2
245.609,-5.69,6.2,-0.47
245.648,-5.3,4.55,0.51
245.685,-3.57,4.86,-0.08
245.801,-7.06,6.51,-0.43
245.839,-7.18,12.51,3.02
245.878,-7.61,13.96,0.67
245.916,-6.28,16.04,6.39
245.955,-2,11.06,10.28
245.994,-3.57,4.94,-0.04
246.033,-4.98,4.31,-0.82
246.072,-4.2,7.77,3.3
246.109,-3.37,10.43,6.28
246.148,-1.8,8.43,4.35
246.185,-2.28,2.55,0.12
246.223,-5.41,3.1,0.59
246.26,-8.94,7.49,2.31
246.298,-7.41,9.02,1.41
246.335,-5.02,8.16,1.02
246.449,-2.47,10.55,6.83
246.487,-2.04,11.73,2.67
246.526,-7.96,12.04,5.41
246.564,-7.06,7.96,3.41
246.602,-3.8,6.98,0
246.639,-4.2,4.63,-1.02
246.678,-5.65,4.31,-0.47
246.716,-3.57,5.22,0.12
246.754,-3.57,6.63,-1.29
246.792,-5.81,7.61,0.16
246.83,-6.63,12.94,3.37
246.868,-7.85,13.53,1.53
246.907,-8.39,10.04,1.33
246.946,-6.83,19.5,11.38
247.099,-3.69,9.96,4.51
247.136,-2.75,7.92,3.96
247.174,-2.94,4,1.61
247.211,-5.61,2.94,0.16
247.249,-8.83,6.75,1.14
247.286,-5.69,9.41,2.9
247.324,-5.65,9.45,2.59
247.361,-7.85,7.69,-0.39
247.4,-9.49,9.45,0.35
247.437,-2.94,9.96,9.02
247.475,2.08,10.04,1.69
247.512,-10.08,17.34,0.86
247.552,-8.04,9.22,7.14
247.589,-6.16,5.53,0.47
247.627,-2.75,3.96,-1.33
247.742,-3.88,7.57,-1.02
247.781,-5.84,6.59,-1.02
247.819,-7.88,9.61,0.2
247.857,-10.28,14.87,2.98
247.897,-6,15.3,4.86
247.935,-3.45,18.63,12.43
247.975,-1.41,5.14,2.24
248.012,-4.39,4.94,-1.8
248.051,-4.59,7.53,2.79
248.088,-4.04,9.49,5.06
248.126,-2.79,6.51,3.3
248.163,-2.94,2.31,-1.22
248.202,-4.63,2.35,0
248.239,-8.32,8.32,2.55
248.352,-8.55,7.73,-0.2
248.39,-10.08,11.22,2.98
248.43,-2.63,10.08,8.04
248.468,-0.39,10.43,3.84
248.507,-5.33,14.28,4.28
248.546,-8.55,10.28,6.71
248.584,-3.84,6.86,-1.37
248.623,-5.3,2.98,-0.35
248.661,-5.06,3.02,-1.06
248.7,-2.16,6,0.2
248.737,-2.98,8.32,-0.94
248.776,-5.53,7.3,-1.53
248.814,-7.88,7.49,-0.86
248.853,-9.18,14.98,3.53
248.891,-7.77,15.14,3.57
249.007,-4.31,3.06,-1.53
249.046,-3.61,7.18,1.92
249.083,-3.65,10.2,7.69
249.122,-3.02,7.65,3.84
249.159,-3.26,4.67,1.02
249.197,-4.9,3.02,0
249.234,-8.16,6.35,1.14
249.272,-6.43,7.53,1.61
249.309,-4.28,8.83,2.59
249.347,-5.26,9.18,2.35
249.384,-10.04,9.81,1.29
249.423,-6.32,11.38,6.51
249.461,-0.78,10.16,6.24
249.5,-3.96,13.14,4.59
249.538,-6.32,11.41,6.51
249.653,-5.92,4.59,0.24
249.69,-4.47,4.2,-0.78
249.729,-1.8,5.73,-0.35
249.767,-3.41,7.14,-3.41
249.806,-6.35,7.22,-0.35
249.844,-7.14,14.91,3.37
249.883,-8.04,13.69,0.94
249.922,-7.69,14.04,4.08
249.96,-6.59,10.67,8.94
249.999,-2.63,6.2,3.14
250.036,-3.41,5.69,0.51
250.074,-2.79,7.14,2.47
250.111,-4.39,8.94,4.24
250.149,-3.88,7.26,3.65
250.186,-3.26,3.84,1.77
250.299,-7.49,7.85,1.45
250.336,-5.18,8.51,1.77
250.374,-7.85,7.61,0.16
250.411,-10.12,11.38,1.53
250.451,-4.28,10.75,9.06
250.489,-1.41,11.45,6.2
250.528,-6.24,13.49,3.73
250.566,-7.18,9.89,5.14
250.604,-4.35,6.63,-0.63
250.642,-4.35,4.9,-0.94
250.681,-3.77,4.63,-0.47
250.719,-3.1,5.02,-0.9
250.758,-4.28,6.32,-1.41
250.797,-6.83,6.75,-2
250.911,-8.16,10,-0.27
250.951,-6.04,18.48,10.59
250.99,-2.51,7.37,7.14
251.028,-4.31,5.06,0.39
251.065,-3.88,5.53,0.55
251.103,-3.73,7.69,2.82
251.14,-3.65,9.22,6.2
251.178,-2.9,5.45,2.39
251.215,-3.33,2.75,0.47
251.253,-6.55,5.37,2
251.29,-8.87,8.63,3.14
251.328,-6.71,8.47,2.75
251.365,-5.81,8.08,0.51
251.403,-9.85,10.04,0.67
251.441,-6.04,11.89,8.36
251.594,-5.96,7.77,1.49
251.632,-5.84,5.18,-1.1
251.67,-5.53,4.39,-0.24
251.709,-3.61,5.06,0.55
251.747,-2.31,6.98,0.78
251.784,-3.88,7.57,-1.57
251.823,-5.96,5.96,-2.2
251.861,-7.1,9.89,1.77
251.899,-6.86,16.16,3.57
251.937,-8.36,9.26,0.39
251.975,-7.41,16.75,8.47
252.013,0.24,8.75,12.94
252.051,-2.94,6,1.1
252.088,-2.86,6.75,1.14
252.201,-2.55,4.94,2.16
252.238,-2.75,3.1,1.06
252.276,-6.63,4.55,1.77
252.313,-9.3,9.22,2.39
252.351,-6.32,7.69,1.49
252.388,-5.53,8.16,0.94
252.426,-8.47,9.18,0.59
252.463,-8.79,11.65,5.02
252.502,-2.28,8.9,6.71
252.539,-1.61,10,3.06
252.578,-8.79,12.63,5.14
252.616,-7.37,7.14,5.69
252.654,-5.37,6.39,-0.63
252.692,-4.86,5.1,-0.04
252.731,-4.51,5.14,0.86
252.768,-3.33,6.16,1.22
252.883,-6.67,8.9,1.18
252.92,-7.53,14.71,4.43
252.959,-8.28,12.12,0.59
252.998,-9.26,15.93,7.49
253.036,-1.96,9.1,7.34
253.074,-3.37,4.12,-1.96
253.112,-5.06,4.2,0.24
253.15,-4.75,8.9,5.49
253.187,-2.43,10.79,4.9
253.226,-2.35,6.9,3.06
253.263,-3.96,2.9,1.1
253.301,-6.75,4.86,2
253.338,-8.12,7.69,2.31
253.376,-6.2,8.75,2.43
253.488,-9.49,11.06,3.45
253.527,-1.69,8.55,3.8
253.564,-3.53,11.18,5.96
253.603,-5.73,11.89,3.96
253.641,-5.92,8.9,4
253.679,-4.9,5.37,-0.47
253.717,-6.12,4.98,0.82
253.755,-5.14,5.65,0.98
253.792,-2.67,6.04,0.08
253.83,-4.43,6.43,-2.43
253.868,-6.55,6.28,-1.84
253.907,-8.71,8.75,1.14
253.944,-8.32,14.04,3.06
253.983,-8.2,13.06,1.84
254.022,-7.41,15.38,9.69
254.136,-5.1,7.06,2.47
254.174,-5.22,9.26,5.69
254.211,-4.28,8.55,4.86
254.249,-3.69,4.39,0.63
254.286,-5.02,3.41,0.39
254.324,-7.85,7.18,2.28
254.361,-8.28,7.49,2.39
254.399,-6.32,7.77,1.84
254.436,-5.06,10.24,4.31
254.475,-10.47,10.63,3.14
254.514,-8.28,8.36,4.59
254.552,-3.06,8.43,4.24
254.589,-1.88,11.3,5.53
254.628,-6.47,10.98,4.31
254.742,-4.71,5.33,0.9
254.78,-3.92,7.18,1.77
254.817,-3.84,7.61,0.75
254.855,-5.22,7.3,-0.94
254.893,-7.85,7.45,-0.27
254.932,-7.96,11.77,3.61
254.97,-7.81,11.92,0.55
255.009,-7.96,12.08,2.75
255.048,-5.61,11.61,8.47
255.086,-3.22,5.61,1.88
255.124,-3.84,3.41,-0.43
255.162,-4.2,6.71,2
255.2,-5.06,10.43,5.3
255.238,-3.61,7.92,4
255.463,-8.87,8.79,1.65
255.501,-8,10.4,4.08
255.539,-2.16,8.55,6.39
255.577,-1.06,9.69,2.79
255.614,-3.77,10.24,0.67
255.653,-7.06,9.85,5.65
255.69,-5.02,6.28,1.84
255.728,-5.22,5.02,-0.31
255.766,-5.26,5.3,0.16
255.804,-3.61,6.35,0.43
255.841,-3.41,7.18,-0.98
255.88,-5.96,5.49,-1.02
255.918,-7.14,9.41,1.61
256.033,-7.34,14.28,4.67
256.072,-2.55,8.59,9.92
256.109,-4.16,5.88,3.65
256.147,-3.69,6.08,0.51
256.184,-5.02,7.69,1.22
256.222,-4.63,7.49,4.24
256.259,-2.63,5.26,3.8
256.297,-1.61,3.49,1.69
256.334,-5.1,6.59,1.49
256.372,-7.57,9.85,3.06
256.409,-7.73,9.06,2.94
256.447,-7.14,9.1,2.82
256.484,-8.9,9.34,1.02
256.522,-7.77,11.49,6.08
256.712,-4.67,4.79,-0.24
256.751,-4.71,4.98,0.63
256.788,-3.14,5.33,0.9
256.826,-3.02,5.02,0.47
256.863,-5.77,6.35,-1.49
256.902,-7.85,7.69,0.2
256.939,-7.41,12.59,3.69
256.978,-7.37,13.61,2.2
257.016,-6.94,7.96,1.06
257.054,-5.57,14.95,8.98
257.092,-2.04,8.36,6.04
257.13,-5.69,6.83,3.65
257.167,-5.26,6.16,2.08
257.317,-2.75,3.84,1.88
257.355,-6,3.69,0.31
257.392,-8.94,7.3,1.53
257.43,-7.41,9.22,3.49
257.467,-7.22,9.34,2.12
257.505,-9.45,9.96,0.35
257.542,-6.94,10.94,4.39
257.581,-2.24,8.9,7.02
257.618,-3.06,10.94,3.06
257.657,-9.96,13.18,6.12
257.695,-5.3,7.02,2.39
257.733,-4.63,5.49,0.39
257.77,-4.82,4.12,0.2
257.808,-4.67,3.96,-0.2
257.998,-8.67,11.61,0.94
258.037,-8.36,15.85,8.75
258.076,-4.71,11.73,6.94
258.114,-3.37,5.49,1.14
258.152,-4.94,4.24,0.31
258.189,-4.75,6.39,2.67
258.227,-4.79,9.61,4.67
258.264,-3.53,6.59,2.71
258.302,-3.45,3.41,0.04
258.339,-5.3,4.31,1.73
258.377,-7.41,7.65,3.65
258.414,-6.24,8,2.16
258.452,-5.53,8.87,2.63
258.489,-8.08,8.51,1.53
258.604,-1.18,9.57,4.47
258.641,-5.37,13.38,3.14
258.68,-8.55,10.12,4.94
258.718,-5.02,6.28,1.84
258.756,-5.81,6.2,-0.51
258.794,-4.98,4.35,-0.35
258.833,-3.73,4.98,0.35
258.87,-3.37,6.04,-1.26
258.909,-5.26,6,-1.37
258.948,-7.49,9.3,2.2
258.985,-8.39,13.77,3.3
259.024,-9.06,7.41,-1.06
259.062,-7.53,12.98,2.94
259.291,-2.24,5.73,2.67
259.329,-2.9,3.33,0.39
259.366,-6.55,3.8,0.9
259.404,-10.71,8.55,2.43
259.442,-7.26,9.06,1.92
259.48,-6.12,8.32,1.65
259.517,-9.1,8.63,0.24
259.555,-9.06,11.61,4.98
259.593,-2.86,9.02,6.08
259.631,-4.75,12.2,4.59
259.669,-7.61,11.69,4.67
259.708,-5.77,7.45,0.47
259.745,-4.98,5.45,-1.02
259.859,-2.71,6.04,0.24
259.897,-4.47,6.71,-1.14
259.935,-7.1,6.98,-0.94
259.974,-9.22,10.75,1.77
260.012,-8.59,12.67,2.08
260.051,-8.87,10.12,0.9
260.089,-8.39,16.51,7.45
260.128,-2.12,8.24,7.41
260.165,-3.77,4.82,0.39
260.203,-4.2,5.69,0.94
260.24,-5.49,8.87,2.82
260.278,-4.71,8.67,4.55
260.315,-3.45,5.02,2.12
260.353,-3.88,2.82,0.86
260.39,-7.53,6.71,2.43
260.617,-2.98,7.96,6.04
260.655,-2.24,11.3,5.57
260.693,-8.32,13.22,5.81
260.732,-7.77,8.16,3.92
260.769,-5.73,6.51,0.39
260.807,-4.94,5.26,0.98
260.844,-4.24,4.94,0.51
260.882,-3.57,5.33,-0.16
260.92,-4.47,6.59,-0.82
260.959,-5.41,6.75,-1.02
260.998,-6.47,7.22,0.31
261.035,-7.53,13.42,2.63
261.153,-3.06,11.41,10.94
261.192,-3.06,6.51,3.3
261.23,-3.53,6.2,0.08
261.267,-4.63,6.08,0.47
261.305,-6.12,7.92,4.94
261.342,-3.92,7.85,5.49
261.38,-2.79,4.71,0.86
261.417,-4.98,4.16,0.24
261.455,-7.41,7.22,2.51
261.492,-7.14,8.51,3.45
261.53,-6.51,9.14,1.53
261.567,-8.16,8.9,0.12
261.605,-9.61,10,3.65
261.643,-5.02,8.87,7.45
261.681,-2.08,10,3.96
261.834,-4.79,4.75,-1.37
261.873,-4.71,4.51,0.04
261.91,-3.02,6.16,0.59
261.948,-3.37,7.1,-1.61
261.986,-5.02,6.71,-1.37
262.025,-8,7.45,-0.31
262.063,-10.55,15.02,3.57
262.103,-9.02,16.24,5.81
262.141,-5.69,11.26,8
262.18,-4.31,4.55,0.71
262.217,-4.71,4.82,1.73
262.255,-3.73,7.65,4.47
262.292,-3.69,9.49,3.57
262.442,-7.34,7.41,2.71
262.48,-7.73,7.73,2.35
262.517,-6.28,7.96,1.84
262.555,-7.37,9.41,1.69
262.592,-8.87,9.96,-1.61
262.631,-8.04,10.24,4.79
262.669,-0.9,8.94,6.55
262.707,0.08,10.36,2.71
262.744,-10.36,13.96,6.71
262.784,-7.14,8.63,4.35
262.822,-3.41,5.45,-0.43
262.86,-4.2,3.49,-0.35
262.899,-4.94,4.59,-0.39
262.937,-3.65,7.14,0.43
262.975,-3.96,7.14,-0.75
263.09,-10.36,12.67,1.22
263.13,-5.69,15.57,5.84
263.168,-2.82,8.94,8.51
263.206,-3.61,5.84,2.2
263.243,-5.69,5.92,1.26
263.281,-3.88,7.18,2.08
263.318,-4.31,8.16,3.22
263.356,-2.63,6.35,3.84
263.393,-2.67,2.82,0.98
263.431,-5.02,4.43,1.92
263.468,-7.57,7.65,3.18
263.506,-8,8.63,2.71
263.543,-5.73,9.85,2.75
263.581,-9.02,8.94,-0.16
263.695,-0.08,9.14,4
263.733,-1.96,11.45,3.26
263.772,-10.28,11.3,5.26
263.811,-4.75,7.49,0.16
263.849,-2.39,5.45,-3.84
263.887,-4.28,4.39,-1.61
263.926,-3.84,5.84,0.94
263.963,-3.73,6.47,0.31
264.001,-6.04,5.69,-0.71
264.039,-7.61,8.08,0.16
264.077,-8.79,14.83,2.98
264.115,-8.67,11.53,1.73
264.154,-7.02,17.46,9.26
264.192,-1.37,6.51,5.3
264.23,-3.26,4,-0.08
264.268,-3.88,6.43,1.8
264.306,-4.98,9.3,4
264.418,-4.71,3.14,1.22
264.456,-8.12,7.53,1.88
264.493,-7.96,7.88,2.82
264.531,-6.32,9.14,2.51
264.568,-5.49,9.61,2.47
264.606,-9.73,9.38,0.94
264.643,-5.88,10.83,6.86
264.682,-1.29,9.34,4.43
264.719,-2.16,11.06,3.84
264.758,-15.85,9.18,12.51
264.798,-5.61,7.65,2.04
264.835,-2.82,4.12,-4.12
264.874,-5.37,4.59,-0.39
264.989,-4,6.63,-1.77
265.028,-6.79,6.39,0.27
265.065,-10.43,10.94,7.1
265.105,-10.16,15.89,3.37
265.144,-6.51,12.43,3.84
265.183,-6.94,12.32,5.65
265.222,-3.33,5.1,2.43
265.259,-3.18,5.14,0.71
265.297,-4.63,1.69,-2.98
265.335,-4.9,8.94,7.41
265.373,-4.47,7.41,4.04
265.41,-5.18,5.81,2.35
265.448,-5.49,3.02,2
265.485,-8.63,6.94,1.61
265.523,-6.86,7.65,2
265.675,-3.96,11.14,8.51
265.713,-1.14,10.04,3.73
265.752,-5.77,11.18,4.71
265.79,-6.98,9.06,4.67
265.828,-6.83,8.36,1.69
265.865,-5.77,6.86,0.94
265.903,-5.45,4.16,-1.26
265.941,-3.8,6.32,0.31
265.979,-4.35,7.3,-2.04
266.017,-7.22,6.79,-1.29
266.056,-7.14,8.55,-3.45
266.094,-11.18,14.08,3.57
266.286,-6.32,1.45,-0.12
266.325,-10.79,8.75,7.37
266.363,-1.88,7.73,2.75
266.401,-2.04,2.94,1.77
266.438,-1.26,3.1,-2.2
266.477,-7.37,4.98,1.1
266.514,-7.53,6.71,-5.18
266.553,-7.77,9.69,1.65
266.59,-7.45,8.36,0.35
266.628,-8.36,10.79,4.24
266.666,-4.04,10.24,8.08
266.705,-3.61,10.59,5.26
266.743,-7.18,11.69,3.14
266.782,-8.55,8.36,4.43
266.933,-4.67,5.73,-0.47
266.972,-4.04,6.12,-2.12
267.01,-5.22,5.26,-2.55
267.049,-7.92,10.51,1.18
267.087,-10.71,13.77,1.26
267.127,-8.79,10.43,0.39
267.165,-7.26,14.95,7.02
267.204,-3.69,6.32,4.59
267.241,-4.67,5.1,1.77
267.279,-9.77,11.38,-3.84
267.318,-4.04,3.3,13.57
267.357,-5.84,6.83,6.35
267.394,-4.28,3.49,2.51
267.432,-4.43,3.49,-2
267.545,-7.1,9.61,2.47
267.583,-8.08,8.63,0.98
267.699,-2.12,8.75,5.81
267.736,-4.28,9.22,6.83
267.774,-8.75,10.9,3.45
267.812,-8.87,7.34,5.96
267.85,-6.12,6.28,1.29
267.887,-4.98,4.31,-1.29
267.926,-4.12,4.82,-0.75
267.964,-4.75,6.28,-1.77
268.003,-6.2,6.24,-2
268.041,-8.2,8.16,0.43
268.079,-8.79,12.87,2.51
268.233,-4.24,5.02,0.82
268.27,-5.33,4.12,-0.51
268.309,-4.2,8.36,-0.98
268.348,-5.1,10.51,-1.33
268.387,-11.14,11.69,5.18
268.427,-1.96,-0.75,-2.39
268.466,-11.73,8.67,-0.35
268.506,-7.02,10.2,4.86
268.544,-5.96,8.94,3.41
268.582,-7.22,9.73,2.35
268.619,-9.92,9.61,0.59
268.657,-8.51,11.3,4.2
268.695,-1.57,9.49,6.67
268.81,-0.31,10.36,-9.45
268.85,-9.96,7.85,11.18
268.888,-5.18,4.55,-0.35
268.927,-3.92,4.9,-0.78
268.965,-3.77,5.96,-0.9
269.004,-6.04,6.67,-2.04
269.042,-8.67,8.36,-0.16
269.081,-7.53,13.73,2.71
269.119,-8.24,12.28,0.2
269.158,-4.24,16.79,8.08
269.196,-2.08,8.39,8.55
269.234,-4.9,4.98,0.75
269.271,-4.63,5.84,-0.55
269.31,-1.92,7.61,2.47
269.348,-3.53,9.18,4.67
269.498,-8.36,7.3,2
269.536,-6.51,7.77,2.43
269.574,-5.73,8.83,1.73
269.611,-7.96,10.16,0.59
269.65,-9.41,11.96,4.35
269.688,-4.51,8.98,6.94
269.726,-1.26,8.51,4.79
269.763,-3.1,11.22,3.77
269.802,-7.85,12.71,5.22
269.84,-5.22,7.65,1.77
269.878,-4.86,5.61,0.82
269.915,-4.9,4.12,0
269.953,-4.16,4.51,-0.31
269.991,-2.9,6.2,-0.82
270.03,-4.47,6.9,-2.08
270.068,-7.18,8.08,0.12
270.106,-8,14.08,3.18
270.144,-9.1,12.36,-0.51
270.184,-5.81,13.73,2.94
270.223,-2.51,12.16,9.65
270.261,-2.75,6.75,3.18
270.299,-4.08,5.18,0.82
270.336,-2.82,6.83,1.29
270.374,-3.53,9.22,3.8
270.411,-2.35,7.34,4.51
270.449,-3.06,4.28,2.08
270.486,-5.53,4.28,1.45
270.524,-8.28,6.67,1.53
270.561,-8.47,6.94,0.94
270.599,-5.84,8.87,1.45
270.636,-5.92,10,2.12
270.675,-9.89,11.26,0.75
270.713,-6.63,11.92,4.63
270.752,-1.92,8.79,7.45
270.789,-2.43,10.47,5.14
270.828,-5.33,12.71,4.86
270.866,-0.35,6.75,-7.3
270.905,-5.14,6.24,0.98
270.942,-5.84,5.65,0.9
270.98,-4.31,5.18,0.04
271.017,-3.57,5.69,-1.14
271.056,-5.06,6.43,-1.61
271.094,-7.1,7.34,-0.67
271.133,-6.86,11.18,1.8
271.171,-7.06,14.95,1.8
271.21,-7.57,12.43,2.08
271.249,-4.63,13.42,8.39
271.399,-3.53,9.02,4.2
271.437,-2.24,7.85,3.92
271.475,-2.35,4.51,2.04
271.512,-4.12,4.08,1.53
271.55,-7.37,6.71,2.24
271.587,-9.14,7.37,2.43
271.625,-6.04,8.24,1.29
271.662,-5.26,9.45,1.96
271.7,-8.87,10.36,0.9
271.738,-4.79,12.2,4.63
271.777,-4.08,12,3.73
271.815,-2.94,14.2,6.75
271.854,-4.39,13.22,3.92
272.007,-3.61,5.45,-0.16
272.045,-0.51,5.45,-1.77
272.084,-3.14,7.49,-1.45
272.123,-4.51,7.3,-0.82
272.161,-4.98,9.77,1.61
272.199,-4.75,16.08,3.37
272.237,-7.3,13.14,0.35
272.276,-6.35,15.1,3.37
272.314,-1.02,10.28,5.65
272.353,-1.53,7.41,3.33
272.39,-3.06,5.3,1.8
272.428,-2.39,7.53,2.04
272.465,-2.79,10.12,2.94
272.504,-2.04,7.14,2.94
272.541,-1.41,6.39,4.51
272.654,-6.51,7.45,0.86
272.691,-5.26,8.9,1.53
272.729,-6.28,10.24,2.55
272.767,-7.73,10.51,1.26
272.806,-5.73,11.06,5.61
272.844,-2.9,11.53,6.28
272.883,4.71,0.55,1.53
272.919,0.47,4.75,3.37
272.956,-5.1,9.41,1.45
272.993,-3.57,8,2.28
273.031,-4.47,6.39,0.39
273.068,-2.94,6.32,0.08
273.106,-1.88,7.37,-0.78
273.144,-3.06,7.77,-1.61
273.183,-4.71,7.65,-0.9
273.298,-6.59,12.51,-0.12
273.337,-3.49,16.44,2.9
273.376,2.63,12.28,10.32
273.414,-2.31,5.57,0.63
273.452,-2.55,5.45,0.86
273.489,-1.49,7.53,2.94
273.527,-1.33,10.08,4.43
273.565,0,9.34,5.81
