NAME:,walk_4_1.csv,,
EXPERIMENT TIME:,25/05/2022 15:50,,
ACTIVITY TYPE:,Walking,,
COUNT OF ACTUAL STEPS,95,,
,,,
Time [sec],ACC X,ACC Y,ACC Z
0,0.78,0.63,-10.43
0.041,0.35,0.63,-9.69
0.082,-0.04,0.94,-9.34
0.123,0.51,1.53,-10.55
0.164,0.12,0.98,-11.57
0.205,-1.06,1.61,-12.04
0.246,-1.69,1.96,-11.85
0.287,-1.65,2.59,-11.73
0.328,-1.02,1.77,-11.81
0.369,-0.98,1.33,-11.69
0.41,-0.86,1.84,-11.96
0.451,-0.55,1.61,-12.24
0.492,1.02,1.84,-14.12
0.533,1.84,0.2,-15.93
0.574,-2.55,1.96,-13.34
0.615,-7.45,5.3,-10.4
0.656,5.18,3.49,-9.45
0.697,11.69,-0.94,-12.55
0.738,2.63,-3.92,-11.1
0.779,-5.06,3.06,-7.37
0.82,1.1,6.79,-8.83
0.861,0.86,3.45,-9.1
0.902,0.35,0.2,-9.89
0.943,1.29,-0.63,-10.16
0.984,-0.08,1.33,-9.89
1.025,-0.16,1.69,-9.92
1.066,-0.86,2.31,-9.53
1.107,-0.63,1.33,-9.61
1.148,-0.98,1.88,-10.83
1.189,-1.69,2.9,-13.18
1.23,-1.22,3.61,-15.89
1.271,-2.59,2.9,-16.59
1.312,-6.71,3.18,-14.87
1.353,-4.82,1.92,-13.45
1.394,-1.73,1.8,-12.79
1.435,-1.14,2.47,-11.61
1.476,0.16,1.29,-10.75
1.517,-0.78,2.24,-10.04
1.558,0.43,2.24,-10.36
1.599,0.27,0.86,-10.2
1.64,0.47,0.43,-10.12
1.681,0.31,0.94,-9.89
1.722,0.51,0.98,-10.55
1.763,-0.39,1.26,-10.75
1.804,0.63,0.35,-11.49
1.845,1.33,0.55,-12
1.886,2.67,1.1,-13.73
1.927,3.88,1.1,-15.06
1.968,-2.39,2,-12.04
2.009,-4.55,7.37,-10.94
2.05,4.79,7.18,-14.79
2.091,1.45,-0.35,-12.16
2.132,-1.77,0.82,-9.18
2.173,-1.49,3.18,-8.51
2.214,-1.18,2.51,-7.73
2.255,-0.08,0.31,-8.43
2.296,-0.75,0.24,-10.08
2.337,-1.45,-0.51,-12.04
2.378,-5.18,-0.04,-11.14
2.419,-6.08,0.75,-11.26
2.46,-3.92,2,-12.75
2.502,-3.41,3.02,-14.59
2.543,-2.63,0.98,-16.63
2.584,-8,3.33,-14.08
2.625,-5.33,2.75,-13.69
2.666,-1.92,2.16,-13.38
2.707,-3.06,4.43,-12.32
2.748,-0.78,3.88,-12.55
2.789,-1.41,2.86,-11.65
2.83,0.51,3.69,-12.36
2.871,0.47,2.79,-12.28
2.912,-0.08,1.18,-11.02
2.953,-0.04,0.04,-10.59
2.994,-0.08,1.1,-9.61
3.035,1.53,0.59,-9.61
3.076,2.43,0,-9.69
3.117,2.59,0.67,-10.16
3.158,3.37,0.24,-12.32
3.2,3.88,0,-13.77
3.241,-0.9,1.49,-12.59
3.282,-4.82,4.98,-12.63
3.323,-1.26,8.63,-15.18
3.364,-1.69,0.08,-14.32
3.405,-3.73,2.04,-11.61
3.446,-2.28,3.57,-10.55
3.487,-1.57,1.92,-9.57
3.528,-0.94,0.59,-9.41
3.569,-1.41,0,-9.89
3.61,-2.59,0.63,-9.92
3.651,-4.47,1.02,-9.53
3.692,-5.84,1.37,-9.69
3.733,-2.98,2.28,-12.59
3.774,-3.14,3.14,-16.28
3.815,-2.67,0.82,-16.83
3.856,-9.22,2.51,-14.91
3.897,-2.98,1.53,-15.46
3.938,-0.98,1.8,-14.12
3.979,-0.94,3.37,-13.22
4.02,-1.02,3.53,-12.36
4.061,-1.18,1.88,-11.92
4.102,-0.75,1.92,-11.61
4.143,0.08,1.45,-11.77
4.184,0.59,0.35,-10.94
4.225,0.47,-0.08,-10.47
4.266,0.51,-0.59,-9.45
4.307,0.9,-0.39,-8.9
4.348,1.49,-0.47,-9.06
4.389,2.2,-0.27,-9.81
4.43,2.86,0.82,-12.12
4.471,3.57,0.86,-15.42
4.512,-1.49,2.35,-14.91
4.553,-6.75,5.06,-13.45
4.594,-3.49,6.63,-14.04
4.635,1.02,2.79,-13.26
4.676,-1.33,2.08,-10.43
4.717,-1.49,2.2,-9.34
4.758,-0.98,0.55,-8.98
4.799,-0.31,0.2,-10.16
4.84,-1.14,-0.24,-11.73
4.882,-4.24,0.43,-12.36
4.923,-6.43,0.86,-12.12
4.964,-8.47,0.35,-10.71
5.005,-3.53,2.2,-12.4
5.046,-3.33,3.45,-12.47
5.087,-3.88,2.51,-14
5.128,-3.41,2.51,-15.93
5.169,-6.43,4.04,-14.2
5.21,-4.04,2.82,-14.28
5.251,-2.2,2.08,-14.67
5.292,-0.75,3.14,-14.79
5.333,-0.24,2.67,-14.36
5.374,-1.33,1.22,-13.26
5.415,-0.63,0.9,-12.83
5.456,0.04,0.86,-12.59
5.497,1.02,0.47,-11.57
5.538,1.14,-0.35,-9.96
5.579,0.82,-0.94,-8.12
5.62,1.88,-0.78,-7.49
5.661,2.47,-0.43,-7.57
5.702,1.96,-0.47,-8.63
5.743,1.1,-0.31,-10.36
5.784,2.98,0.2,-14.44
5.825,-0.08,1.69,-16.59
5.866,-5.88,4.12,-17.18
5.907,-8.32,8.2,-17.02
5.948,-5.84,6.71,-14.95
5.989,-1.33,1.96,-12.91
6.03,-3.57,4.63,-9.41
6.071,-0.9,2.71,-8.9
6.112,-1.37,1.61,-8.08
6.153,-0.47,1.26,-9.85
6.194,-2.98,2.12,-10.67
6.235,-5.02,2.16,-11.06
6.276,-5.81,1.49,-10.75
6.317,-3.61,2.55,-11.73
6.358,-2.55,3.02,-11.61
6.399,-2.08,2.31,-14.4
6.44,-2.12,3.1,-15.93
6.481,-5.33,4.86,-15.02
6.523,-3.84,2,-14.98
6.564,-1.06,0.71,-15.14
6.605,-2.12,2.2,-13.93
6.646,-0.71,1.53,-13.14
6.687,-0.27,1.61,-12.04
6.728,0.2,0.71,-11.57
6.769,0.63,-0.39,-10.94
6.81,0.71,-0.55,-10.28
6.851,0.59,-0.31,-9.61
6.892,0.94,-0.67,-8.94
6.933,1.18,-1.22,-7.85
6.974,1.84,-0.24,-8.08
7.015,2.47,-0.12,-9.65
7.056,2.28,0.27,-11.96
7.097,5.33,0.71,-16.79
7.138,1.88,2.04,-18.75
7.179,-7.18,5.53,-18.08
7.22,-9.02,9.45,-16.24
7.261,-2.55,3.02,-13.61
7.302,-1.73,1.45,-10.51
7.343,-2.51,3.02,-8.28
7.385,0.63,1.57,-8.79
7.426,-0.27,0.31,-8.75
7.467,-1.53,0.16,-10.36
7.508,-4.04,0.94,-10.79
7.549,-6.59,2.47,-11.02
7.59,-6.04,1.53,-11.06
7.631,-3.69,1.65,-11.69
7.672,-4.08,1.96,-12.36
7.713,-3.1,1.41,-15.65
7.754,-2.9,3.26,-16.48
7.795,-5.65,2.75,-14.55
7.836,-0.16,-2.04,-15.22
7.877,-2.35,-1.1,-14.24
7.918,-3.02,2.31,-13.06
7.959,-0.16,-0.24,-11.96
8,0.78,0.27,-10.71
8.041,0.75,0,-10.08
8.082,1.73,-0.59,-9.61
8.123,0.67,0.63,-9.49
8.164,0.43,-0.51,-9.38
8.205,-0.71,-0.55,-8.51
8.246,-1.1,0.43,-8.55
8.287,-0.31,0.59,-9.77
8.328,-0.47,0.71,-10.67
8.369,0.55,1.61,-14
8.41,2.35,0.67,-16.83
8.451,-4.35,1.92,-14.55
8.492,-8.08,4.51,-13.18
8.533,-0.24,5.45,-14.95
8.574,-1.37,1.14,-11.89
8.615,-2.71,2.04,-9.45
8.656,-1.29,2.28,-8.79
8.697,-1.18,1.45,-8.28
8.738,-0.39,0.98,-8.9
8.779,-0.94,0.78,-9.65
8.82,-1.49,1.37,-10.83
8.861,-4.35,1.02,-10.87
8.902,-5.02,1.65,-11.45
8.943,-3.69,1.41,-11.53
8.984,-4.94,2.47,-11.57
9.025,-2.98,2.16,-13.57
9.066,-3.3,2,-14.95
9.107,-5.53,3.06,-14.2
9.148,-2.86,-0.31,-14.28
9.189,-4.31,1.37,-14
9.23,-2.94,2.35,-14.28
9.271,-2.31,1.92,-12.94
9.312,-0.04,1.61,-12.87
9.353,0.67,2.86,-10.63
9.394,1.26,1.02,-12.12
9.435,-0.55,0.78,-10.79
9.476,0.75,-0.2,-10.2
9.517,0.39,-0.39,-8.59
9.558,0.67,-0.16,-8.04
9.599,-1.45,-1.22,-7.3
9.64,3.37,0.08,-9.77
9.681,3.06,1.88,-14
9.722,1.45,-0.75,-15.69
9.763,-5.22,2.39,-14.36
9.804,-8.75,5.22,-13.57
9.845,-2.55,3.57,-14.63
9.886,-1.14,1.57,-14.95
9.927,-4.35,1.14,-11.57
9.968,-2.67,1.57,-9.92
10.009,-2.86,1.61,-8.59
10.05,-1.57,0.94,-8.55
10.091,-1.84,1.26,-9.49
10.132,-2.47,1.1,-10.08
10.173,-2.79,0.63,-10.63
10.214,-4.86,1.1,-10.36
10.255,-4.75,1.88,-11.02
10.296,-3.92,2.98,-11.92
10.337,-3.06,2.35,-13.73
10.378,-3.14,3.06,-14.91
10.419,-5.3,3.77,-14.2
10.46,-4.55,2.43,-14.47
10.501,-3.45,0.59,-14.04
10.542,-2.75,0.67,-13.53
10.583,-2.12,1.53,-12.67
10.624,-1.26,0.16,-11.26
10.665,-1.49,0.47,-10.16
10.706,-0.55,1.57,-10
10.747,0.98,1.37,-10.4
10.788,-0.75,0,-10.4
10.829,-0.78,-0.71,-10.08
10.87,-1.26,0.04,-8.71
10.911,-0.51,0.2,-9.81
10.953,-1.14,0.16,-9.77
10.994,0.04,0.12,-11.3
11.035,-0.39,0.94,-14.47
11.076,-1.49,2.28,-13.42
11.117,-4.51,3.88,-11.41
11.158,-1.1,4.98,-12.67
11.199,-0.98,3.02,-12.55
11.24,-2.31,0.63,-11.1
11.281,-2.67,1.02,-10.04
11.322,-2,1.06,-9.3
11.363,-1.65,0.08,-9.81
11.404,-2.24,1.33,-10.63
11.445,-2.35,0.9,-11.61
11.486,-4.71,1.77,-11.18
11.527,-4.9,1.22,-10.71
11.568,-3.96,1.96,-11.41
11.609,-3.65,2.51,-11.49
11.65,-4.16,2.43,-11.73
11.691,-3.49,1.84,-12.75
11.732,-4,3.02,-14.08
11.773,-5.45,2.98,-13.49
11.814,-5.49,1.61,-12.63
11.855,-3.22,0.39,-14
11.896,-2.55,1.18,-14.16
11.937,-1.73,0,-13.22
11.978,-1.18,0.98,-12.36
12.019,-1.02,1.61,-12
12.06,-0.63,0.94,-11.96
12.101,-0.63,0.27,-11.34
12.143,-0.67,0.39,-10.4
12.184,-0.24,0,-9.65
12.225,-0.43,-0.24,-8.87
12.266,-0.39,-0.43,-8.43
12.307,-0.2,0.04,-8.87
12.348,-0.16,-0.16,-9.18
12.389,0.59,0.78,-11.06
12.43,0.51,2.86,-14.98
12.471,2.67,2.12,-16.28
12.512,-4.86,2.39,-13.42
12.553,-6.2,5.3,-12.4
12.594,-0.86,3.06,-13.49
12.635,-3.61,1.73,-11.26
12.676,-2.47,3.02,-10.94
12.718,-3.69,2.39,-10.04
12.759,-2,0.2,-10.2
12.8,-3.14,0.71,-10.36
12.841,-3.3,1.06,-10.94
12.882,-5.14,1.26,-10.75
12.923,-5.92,0.67,-10.04
12.964,-4.35,2.08,-10.28
13.005,-3.06,2.67,-11.26
13.046,-3.45,3.06,-12.2
13.087,-2.55,2.47,-14.32
13.128,-2.98,2.79,-15.46
13.169,-5.61,3.73,-13.89
13.21,-3.26,0.71,-13.77
13.251,-2.31,2.86,-14.47
13.292,-1.96,3.37,-14.55
13.333,-2.28,1.26,-13.49
13.374,-1.8,1.41,-13.18
13.415,-1.26,1.14,-12.24
13.456,0,-0.12,-11.22
13.497,0.59,-0.55,-9.65
13.538,0,0.04,-8.24
13.579,0.82,-1.22,-7.41
13.62,1.53,-1.65,-7.3
13.661,2.28,-1.02,-8.87
13.702,0.43,0.86,-10.12
13.743,1.61,1.69,-14.79
13.784,1.96,4.2,-17.38
13.825,-3.92,1.73,-16.08
13.866,-8.59,5.02,-15.53
13.907,-6.71,5.65,-15.34
13.948,-1.57,1.26,-15.81
13.989,-5.14,1.37,-11.45
14.03,-1.84,2.2,-10.32
14.071,-1.33,1.02,-8.75
14.112,-0.51,0.35,-8.59
14.153,-0.39,0.08,-9.18
14.194,-2.63,1.1,-9.89
14.235,-4,0.35,-10.32
14.276,-6.39,1.49,-10.98
14.317,-6.12,2.2,-11.14
14.358,-4.28,3.1,-13.73
14.399,-4.79,2.79,-15.85
14.44,-4.86,2.28,-15.42
14.481,-7.92,2.98,-14.55
14.522,-2,0.08,-16.44
14.563,-2.75,2.82,-15.18
14.604,-2.75,3.53,-14.87
14.645,-1.57,0.9,-12.94
14.686,-0.55,0.63,-11.77
14.727,-0.31,1.41,-11.06
14.768,0.71,1.29,-11.26
14.809,0.27,-0.39,-10.59
14.85,-0.12,-1.41,-9.41
14.891,-0.47,-1.18,-8.94
14.932,1.1,-0.51,-9.49
14.973,0.35,0.24,-10.12
15.014,2.9,0.04,-12.24
15.055,3.88,-0.31,-13.1
15.096,-1.26,1.65,-12.47
15.137,-4.82,6.83,-14.71
15.178,-1.69,4.71,-15.89
15.219,-2.2,2.04,-15.38
15.26,-4.82,3.37,-11.26
15.302,-2.39,4.12,-10.67
15.343,-2.79,1.18,-8.79
15.384,-1.69,0.04,-9.61
15.425,-2.9,1.61,-10.36
15.466,-2.59,2.2,-9.49
15.507,-4.31,0.67,-10.63
15.548,-5.33,2.43,-11.1
15.589,-3.88,1.88,-13.22
15.63,-6.63,1.45,-15.81
15.671,-8.87,1.77,-15.73
15.712,-9.96,3.02,-14.08
15.753,-1.26,-0.08,-15.85
15.794,-2.71,2.04,-14.71
15.835,-2.59,2.86,-14.79
15.876,-0.47,1.49,-14.75
15.917,-3.1,-0.31,-12.79
15.958,-0.51,1.22,-12.12
15.999,0.43,0.98,-10.79
16.04,1.49,0.9,-10.67
16.081,0.16,0.08,-9.45
16.122,0.86,-0.63,-9.49
16.163,0.59,-0.51,-9.69
16.204,-0.39,0.27,-9.89
16.245,2.43,-0.78,-12.32
16.286,1.29,2.12,-12.51
16.327,-3.14,2.51,-10.55
16.368,-3.49,5.02,-11.77
16.409,1.92,5.96,-14.16
16.45,1.69,1.06,-15.26
16.491,-4.55,0.24,-11.65
16.532,-4.86,2.28,-10.94
16.573,-3.26,0.75,-10.16
16.614,-3.18,1.02,-10.51
16.655,-1.96,0.51,-12.24
16.696,-5.18,0.43,-14.04
16.737,-6.32,1.96,-12.28
16.778,-7.06,2.28,-12.71
16.819,-5.73,3.65,-13.57
16.86,-4.28,2.16,-15.57
16.901,-6.04,2.08,-14.44
16.942,-5.65,2.67,-13.49
16.983,-3.02,0.47,-15.26
17.024,-5.57,3.02,-15.77
17.065,-4.82,1.02,-15.06
17.106,-2.43,1.61,-14.28
17.147,-0.12,1.53,-13.42
17.188,-0.63,1.65,-12.08
17.229,0,0.08,-11.77
17.27,1.02,-0.47,-11.22
17.311,0.04,0.04,-9.89
17.352,1.88,-0.82,-10.4
17.393,2.71,-0.86,-10.36
17.434,2.67,-1.06,-11.26
17.475,4.31,-1.22,-12.12
17.516,-0.55,0.51,-10.32
17.557,-2.59,3.96,-12.94
17.598,-0.08,6.55,-15.93
17.639,-0.12,2.67,-15.53
17.68,-4.12,2.98,-12.83
17.721,-4.47,4.12,-11.18
17.762,-3.06,1.69,-10.79
17.803,-3.53,1.37,-10.36
17.844,-3.65,2.86,-9.96
17.885,-3.06,2.47,-10.55
17.926,-4.39,2.79,-10.63
17.967,-3.88,2.98,-12.32
18.008,-4.47,2.82,-13.18
18.049,-5.61,2.86,-16.08
18.09,-7.37,3.22,-16.12
18.131,-9.38,1.69,-13.49
18.172,-1.96,0.63,-16.32
18.213,-3.22,3.92,-15.06
18.254,-0.39,2.39,-15.49
18.295,-3.49,2.24,-13.06
18.337,-0.94,1.77,-13.45
18.378,-1.22,1.29,-12.43
18.419,0.35,0.51,-11.96
18.46,0.47,0.63,-11.26
18.501,-0.55,-0.27,-9.89
18.542,0.67,-0.82,-9.65
18.583,2.35,-0.59,-9.89
18.624,2.47,-0.86,-10.12
18.665,4.12,-1.33,-12.32
18.706,2.47,-0.98,-11.69
18.747,-3.18,3.37,-11.73
18.788,-4.86,7.37,-13.61
18.829,-1.69,4.9,-15.26
18.87,-0.59,0.47,-15.97
18.911,-4.04,3.92,-13.34
18.952,-2.82,3.57,-10.55
18.993,-1.69,0.39,-9.3
19.034,-2.75,2.08,-8.94
19.075,-2.2,1.57,-9.26
19.116,-3.26,1.8,-9.96
19.157,-3.65,1.8,-11.1
19.198,-4.94,2.04,-12.55
19.239,-7.49,3.88,-14.24
19.28,-7.41,2.86,-16.24
19.321,-6.32,1.8,-15.1
19.362,-6.43,3.65,-13.34
19.403,-3.18,1.96,-14.95
19.444,-1.96,2.24,-15.85
19.485,-4,2.59,-15.53
19.526,-3.1,2.08,-15.42
19.568,-2.55,1.45,-14.28
19.609,-1.49,1.53,-13.42
19.65,0.31,0.47,-12.32
19.691,1.41,0.9,-11.14
19.732,0.94,0.9,-8.59
19.773,1.8,-0.31,-8.08
19.814,2.43,-0.43,-7.69
19.855,3.37,-0.39,-8.32
19.896,3.92,-0.31,-11.18
19.937,4.2,0.31,-14
19.978,-1.45,1.57,-14.79
20.019,-6.28,5.69,-15.61
20.06,-1.14,4.9,-17.73
20.101,-3.02,1.29,-16.04
20.142,-5.02,2.79,-12.71
20.183,-2.86,2.31,-11.49
20.224,-3.45,0.27,-9.57
20.265,-2.55,1.14,-9.77
20.306,-3.3,0.67,-9.85
20.347,-4.12,1.37,-10.51
20.388,-5.41,1.49,-10.63
20.429,-6.47,2.08,-10.94
20.47,-6.47,3.06,-13.69
20.511,-7.41,2.98,-17.06
20.552,-8.87,1.84,-16.55
20.593,-5.22,2.08,-16.16
20.635,-1.88,0.98,-16.48
20.676,-3.45,2.71,-15.69
20.717,-1.84,1.22,-14.79
20.758,-2.51,2.08,-13.06
20.799,-1.26,1.65,-12.43
20.84,-0.24,1.29,-11.73
20.881,1.29,0.27,-11.69
20.922,0.24,0.31,-10.63
20.963,0.2,-0.04,-10.12
21.004,1.29,-0.86,-10.08
21.045,1.26,-0.55,-10.43
21.086,2.94,-1.02,-12.43
21.127,2.12,-0.75,-10.83
21.168,-1.96,2.55,-10.98
21.209,-0.67,4.86,-14.12
21.25,-0.86,5.1,-15.89
21.291,-2.71,1.29,-14.87
21.332,-5.1,3.3,-11.85
21.373,-2.55,2.35,-11.14
21.414,-2.82,-0.51,-10.32
21.455,-2.59,1.02,-11.85
21.496,-4.94,2,-11.96
21.537,-4.98,1.1,-11.02
21.578,-5.92,1.73,-11.18
21.619,-6.9,3.26,-11.85
21.66,-6.9,3.3,-14.75
21.701,-7.3,2.28,-16.12
21.742,-9.65,2.59,-13.93
21.783,-4.51,0.67,-15.73
21.824,-4.67,2.12,-15.73
21.865,-4.31,2.43,-15.81
21.906,-4.24,1.14,-14.51
21.947,-2.63,1.45,-13.93
21.988,-1.37,1.14,-13.14
22.029,0.43,0.35,-12.55
22.07,0.55,-0.04,-11.89
22.111,0.59,-0.04,-11.49
22.152,0.12,-0.98,-10.12
22.193,0.51,-1.1,-9.41
22.234,0.47,-1.41,-8.75
22.275,1.92,0.75,-10.87
22.316,3.53,0.94,-12.63
22.357,-1.02,1.49,-11.34
22.398,-3.18,3.18,-12.83
22.439,-3.84,6.55,-14.36
22.48,-1.14,2.63,-14.75
22.521,-2.59,1.53,-13.18
22.562,-4.39,2.47,-11.38
22.603,-2.67,-0.24,-11.06
22.645,-3.84,0.67,-11.57
22.686,-4.39,0.71,-12.36
22.727,-5.81,1.49,-11.77
22.768,-6.55,1.92,-10.79
22.809,-6,2.59,-11.77
22.85,-6.86,3.18,-12.04
22.891,-6,3.18,-14.36
22.932,-7.53,4.31,-15.81
22.973,-9.22,3.33,-13.61
23.014,-3.37,1.41,-15.22
23.056,-3.69,3.41,-15.18
23.098,-3.61,2.71,-14.98
23.139,-3.22,1.18,-13.65
23.18,-2.24,1.73,-13.1
23.221,-1.29,1.18,-12.28
23.262,0.82,0.63,-12.08
23.303,-0.47,0.16,-11.02
23.344,-0.67,-0.47,-10.75
23.385,-1.02,-1.69,-9.49
23.426,0.78,-1.37,-10.04
23.467,0.78,-0.63,-9.81
23.508,3.18,-0.71,-11.89
23.549,2.71,0.27,-10.43
23.59,-1.92,2.9,-10.28
23.631,-2.47,3.73,-13.96
23.672,-4.9,5.3,-15.61
23.713,-4.16,2.16,-14.79
23.754,-4.75,2.59,-11.92
23.795,-2.39,2.82,-10.83
23.836,-1.65,1.06,-10.36
23.877,-1.84,2,-10.67
23.918,-3.18,2.47,-10.55
23.959,-4,2.82,-10.55
24,-5.53,2.94,-10.47
24.041,-5.49,3.26,-11.73
24.082,-6.51,4.82,-13.3
24.123,-6.28,4.39,-16.24
24.164,-9.18,4.55,-15.26
24.205,-7.45,3.1,-14.32
24.246,-2.98,1.22,-15.22
24.287,-4.31,3.61,-14.87
24.328,-2.16,1.02,-15.49
24.369,-3.92,1.61,-14.71
24.41,-2.51,0.86,-14.51
24.451,-1.92,-0.12,-13.3
24.492,-0.08,-0.04,-12.83
24.533,-0.24,-0.2,-11.34
24.574,-0.2,-0.35,-10.04
24.615,0.27,-0.08,-8.51
24.656,1.26,0.51,-8.71
24.697,2.39,0.9,-8.98
24.738,3.49,-0.31,-10.08
24.779,5.14,-0.16,-11.1
24.82,-0.35,0.2,-11.3
24.861,-2.71,2.2,-15.22
24.902,-5.3,5.73,-17.97
24.943,-5.41,3.41,-16.44
24.985,-4.86,3.61,-13.73
25.026,-4.9,2.98,-11.57
25.067,-3.96,2.28,-10.9
25.108,-2.59,0.75,-11.18
25.149,-4.39,1.57,-11.38
25.19,-5.41,1.49,-10.24
25.231,-5.61,2.08,-10
25.272,-5.57,2.98,-10.67
25.313,-4.71,3.88,-12.28
25.354,-5.96,4,-13.65
25.395,-5.81,2.9,-16.16
25.436,-10.32,4,-14.28
25.477,-4.28,-0.39,-15.3
25.518,-3.41,2.2,-15.57
25.559,-3.73,3.37,-15.77
25.6,-3.18,2.08,-15.3
25.641,-2.47,1.26,-14.75
25.682,-2,1.96,-13.57
25.723,-0.27,0.67,-13.1
25.764,0.12,0.04,-12.71
25.805,-2.51,2.04,-11.73
25.846,-2.82,3.3,-10.79
25.887,0.39,2.55,-10.04
25.928,1.49,-2.47,-8.32
25.969,0.24,0.04,-7.65
26.01,1.8,0.51,-7.96
26.051,2.79,-0.86,-9.26
26.092,-1.45,0.94,-9.41
26.133,0.24,4.28,-13.02
26.174,2.2,4.82,-16.83
26.215,-1.73,1.06,-17.42
26.256,-5.77,2.12,-15.97
26.297,-6.28,2.47,-15.53
26.338,-6.94,1.57,-14.83
26.379,-6.08,1.02,-14.32
26.42,-5.22,1.84,-13.96
26.461,-6.71,2.59,-12.32
26.502,-7.26,3.06,-10.71
26.543,-6.28,2.98,-10.63
26.584,-6,4.08,-12
26.625,-5.3,4.35,-14.79
26.666,-6.9,4.12,-15.77
26.707,-7.45,3.49,-14.44
26.748,-3.65,0.9,-15.85
26.79,-2.28,2.31,-16.71
26.831,-1.69,1.41,-15.77
26.872,-1.8,0.55,-14.51
26.913,-0.59,0.24,-12.79
26.954,-0.2,0.55,-10.9
26.995,1.06,0.51,-9.57
27.036,1.53,0.39,-8.79
27.077,0.98,1.29,-8.67
27.118,0.9,-0.51,-8.63
27.159,-0.12,0.24,-8.79
27.2,0.59,-0.31,-9.45
27.241,1.22,1.53,-11.85
27.282,2.16,1.8,-14.71
27.323,-4.63,0.47,-13.42
27.364,-7.34,3.33,-15.18
27.405,-4.2,4.94,-17.46
27.446,-3.1,0.12,-14.83
27.487,-4.08,1.88,-12.12
27.528,-3.61,3.65,-10.75
27.569,-2.12,2.08,-9.69
27.61,-2.51,2.75,-8.55
27.651,-2.04,3.06,-8.63
27.692,-2.24,3.65,-9.02
27.733,-3.49,2.94,-8.87
27.774,-3.22,3.26,-10.12
27.815,-4.59,3.8,-12.08
27.856,-5.41,2.75,-13.65
27.897,-6.28,0.04,-15.26
27.938,-7.49,1.84,-14.98
27.979,-6.71,0.24,-14.32
28.02,-3.18,-0.12,-15.26
28.061,-4.35,2.2,-16.16
28.102,-2.31,0.2,-14.79
28.143,-2,0.98,-13.02
28.184,-1.77,1.65,-12.32
28.225,-1.65,0.47,-12
28.266,-1.61,0.04,-12.32
28.307,-1.8,-0.75,-12.4
28.348,-1.49,-0.75,-11.69
28.389,-0.71,-1.57,-10.75
28.43,0.16,-1.18,-10.08
28.471,0.9,-0.67,-10.24
28.512,2.79,0.39,-10.94
28.553,2,1.37,-9.96
28.594,-2.12,3.3,-9.92
28.635,-0.75,5.41,-13.57
28.676,0.82,5.18,-16.32
28.717,-3.73,2.31,-14.79
28.758,-5.18,4.98,-12.08
28.799,-3.26,2.63,-10.59
28.84,-3.06,1.41,-10.51
28.881,-3.3,0.98,-10.71
28.922,-3.53,1.1,-10.94
28.963,-3.33,0.43,-10.36
29.004,-3.41,0.27,-10.43
29.045,-2.98,0.71,-11.96
29.086,-5.1,1.96,-13.53
29.127,-5.84,1.92,-15.61
29.168,-9.26,2.71,-15.65
29.209,-12.55,2.71,-13.42
29.25,-3.57,0.75,-15.3
29.291,-5.06,3.61,-14.55
29.332,-2.2,2.9,-15.18
29.373,-4.55,2.75,-13.42
29.414,-2.55,2.2,-13.61
29.455,-1.45,1.88,-12.91
29.496,-0.16,0.75,-12.87
29.537,0.39,0.04,-12.36
29.578,-0.27,-0.63,-11.57
29.619,-0.39,-0.63,-10.59
29.66,0.94,-1.84,-10.67
29.701,1.29,-2.28,-9.96
29.742,2.04,-2.16,-10.55
29.783,3.06,-1.65,-12.08
29.824,-2.59,2.55,-11.38
29.865,-3.96,6.08,-13.69
29.906,0.04,2.51,-15.34
29.947,-3.57,1.33,-13.53
29.988,-3.45,2.28,-10.94
30.029,-2.98,4.43,-9.85
30.07,0.27,2.35,-9.89
30.111,-2.28,1.57,-10.12
30.152,-1.92,2.24,-12.2
30.194,-4.67,2.12,-12.36
30.235,-5.92,1.88,-12.08
30.276,-8.47,1.65,-12.32
30.317,-6.83,1.69,-13.1
30.358,-7.45,2.31,-14.83
30.399,-5.96,1.65,-15.02
30.44,-7.49,3.3,-13.22
30.481,-3.22,-0.12,-14.71
30.522,-3.96,1.18,-15.3
30.563,-3.77,1.29,-15.34
30.604,-4.08,0.98,-13.89
30.645,-2.71,1.33,-13.3
30.686,-1.26,0.86,-12.63
30.727,-0.04,0.67,-12.12
30.768,0.71,0.43,-12.08
30.809,-0.39,0.24,-10.75
30.85,0.63,-1.84,-10.32
30.891,0.12,-0.98,-9.96
30.932,0.67,-1.88,-9.26
30.973,1.96,-1.41,-11.34
31.014,3.65,-1.65,-14.12
31.055,-2.9,-1.06,-11.77
31.096,-6.71,2.79,-12.55
31.137,-5.1,4.47,-12.4
31.178,2,2.63,-12.94
31.219,-1.61,3.84,-11.02
31.26,-2.94,3.8,-10.08
31.301,-2.24,1.33,-10.47
31.342,-3.65,2.04,-12.28
31.383,-5.49,2.47,-13.38
31.424,-6.24,2.31,-14.2
31.465,-7.81,1.53,-11.38
31.506,-4.39,1.84,-11.81
31.547,-4.55,3.1,-11.57
31.588,-3.77,4.35,-13.81
31.629,-4.35,2.75,-14.51
31.67,-5.45,2.35,-14.4
31.711,-5.88,2.2,-13.34
31.752,-3.65,0.82,-15.18
31.793,-5.84,3.61,-15.57
31.835,-2,0.39,-15.22
31.876,-1.65,0.63,-13.18
31.917,-1.49,0.94,-11.77
31.958,-0.27,0.55,-11.65
31.999,-0.12,-0.63,-11.22
32.04,-0.67,-1.33,-10.98
32.081,-1.26,-1.69,-9.89
32.122,-0.78,-1.73,-10.79
32.163,-0.08,-1.57,-11.3
32.204,-0.04,-2.55,-10.47
32.245,2.16,-2.39,-12.51
32.286,1.53,-0.67,-11.41
32.327,-2.24,0.86,-10.32
32.368,-2.04,3.18,-11.45
32.409,-2.12,7.34,-13.77
32.45,-2.63,4.79,-13.18
32.491,-3.1,4.98,-12.51
32.532,-3.96,5.22,-10.9
32.573,-2.47,3.1,-11.1
32.614,-4.51,3.8,-10.55
32.655,-3.73,4.12,-11.61
32.696,-5.02,4,-10.98
32.737,-4.35,2.71,-10.28
32.778,-4.43,3.69,-10.28
32.819,-3.49,2.98,-12.2
32.86,-3.88,1.26,-14.2
32.901,-4.2,1.22,-15.57
32.942,-6.71,1.84,-13.85
32.983,-4.43,1.02,-13.96
33.024,-3.8,1.26,-14.24
33.065,-4.55,1.53,-14.36
33.106,-3.18,-0.04,-13.49
33.147,-3.3,1.1,-12.87
33.188,-1.49,0.43,-12.08
33.229,-1.41,-0.35,-11.26
33.27,-0.51,-0.86,-11.34
33.311,-0.51,-1.77,-10.43
33.352,-0.24,-1.92,-10.32
33.393,-0.51,-1.65,-10.36
33.434,-0.75,-1.26,-10.12
33.475,1.06,-2.35,-11.1
33.516,1.33,-1.73,-12.83
33.557,2.28,-0.04,-12.63
33.598,-3.26,1.57,-10.67
33.639,-3.77,5.41,-12.16
33.68,-2.31,5.77,-13.45
33.721,-2.51,5.06,-13.61
33.762,-3.06,4.67,-12.87
33.803,-3.53,2.47,-13.42
33.844,-4.16,2.82,-9.53
33.885,-2.82,2.31,-10
33.926,-2.71,2.47,-10.28
33.967,-2.63,1.96,-10.63
34.008,-3.49,2.16,-10.28
34.049,-3.84,2.04,-9.69
34.09,-3.73,2,-10.59
34.131,-3.14,3.33,-14.59
34.172,-3.69,1.02,-15.46
34.213,-6.51,0.2,-14.12
34.254,-5.14,0.94,-12.59
34.295,-3.77,2.35,-11.53
34.336,-1.57,1.57,-13.06
34.377,-4.35,1.53,-13.81
34.418,-3.18,0.94,-14.59
34.459,-3.22,-0.35,-12.94
34.5,-2.9,-0.12,-11.06
34.541,-1.33,0.31,-10.4
34.582,-0.08,-0.35,-10.2
34.623,-0.51,-1.02,-10
34.664,-0.51,-0.47,-10.51
34.705,0.12,-1.49,-10.59
34.746,0,-1.45,-11.14
34.787,0.24,-1.57,-11.14
34.828,1.8,-1.49,-12.71
34.869,0.47,0.55,-12.32
34.91,-1.49,1.37,-12.47
34.951,-3.92,4.2,-12.87
34.992,-3.69,6,-14.2
35.033,-4.08,3.61,-13.14
35.074,-4.39,4.12,-11.38
35.115,-3.45,3.8,-9.96
35.157,-2.47,2.2,-9.14
35.198,-2.98,1.77,-8.87
35.239,-3.1,1.69,-9.65
35.28,-3.18,1.18,-10.63
35.321,-4.39,1.26,-10.08
35.362,-3.88,0.67,-10.16
35.403,-4.67,2.31,-11.73
35.444,-4.79,2.63,-14.24
35.485,-5.02,1.41,-15.3
35.526,-6.24,1.22,-14.83
35.567,-6.43,0.71,-12.43
35.608,-2.47,0.59,-13.38
35.649,-2.67,1.1,-13.69
35.69,-3.02,1.73,-13.85
35.731,-2.82,1.02,-13.18
35.772,-2.82,0.27,-12.4
35.813,-2.79,0.59,-11.73
35.854,-0.86,-0.31,-11.65
35.895,-0.35,-0.9,-11.02
35.936,-0.59,-1.18,-10.36
35.977,-0.43,-1.41,-9.49
36.018,-0.24,-1.1,-8.94
36.059,0.27,-1.14,-9.92
36.1,0.63,-0.67,-11.85
36.141,2.04,-0.82,-13.96
36.182,-0.08,-1.45,-12.87
36.223,-5.1,3.84,-13.45
36.265,-5.69,6.32,-14
36.306,-0.86,4.12,-14.75
36.347,-3.61,5.14,-11.41
36.388,-1.77,5.06,-9.89
36.429,-1.26,1.77,-8.75
36.47,-1.41,1.14,-8.75
36.511,-2.43,1.77,-10.55
36.552,-4.04,1.29,-11.3
36.593,-4.35,0.59,-11.96
36.635,-7.26,0.04,-10.16
36.676,-3.1,-0.04,-11.65
36.717,-4.94,1.92,-12.12
36.758,-2.67,1.22,-14.28
36.799,-5.14,2.51,-14.59
36.84,-6.24,2.08,-13.14
36.881,-5.18,1.29,-12.24
36.922,-3.02,0.98,-13.65
36.963,-3.06,1.61,-13.96
37.004,-2.51,1.22,-14
37.045,-2.79,1.22,-12.63
37.086,-1.96,0.78,-11.57
37.127,-1.57,1.18,-10.9
37.168,0.12,0.08,-10.79
37.209,-0.24,-0.08,-10.43
37.25,-0.59,-0.63,-10.4
37.291,-0.82,-1.02,-10.08
37.332,-1.02,-0.94,-10.63
37.373,-0.12,-0.47,-11.85
37.414,0.98,-1.18,-13.26
37.455,0.98,-1.26,-13.89
37.496,-3.14,0.35,-12.16
37.537,-3.45,2.63,-12.43
37.578,-1.96,4.28,-13.02
37.619,0.16,3.37,-13.02
37.66,-2.71,2.82,-10.71
37.701,-2.08,2.9,-9.53
37.742,-2.2,1.53,-9.14
37.783,-3.02,1.88,-9.77
37.824,-2.86,1.33,-11.02
37.865,-3.49,0.82,-11.34
37.906,-4.51,0.9,-10.9
37.947,-4.9,0.67,-10.12
37.988,-4.39,1.65,-10.87
38.029,-4.63,1.96,-12.67
38.07,-4.2,1.61,-14.98
38.111,-5.61,2,-14.98
38.152,-7.57,1.29,-13.06
38.193,-4.35,0.24,-13.81
38.234,-3.33,0.94,-14.08
38.275,-3.26,1.49,-13.77
38.316,-3.18,1.06,-13.1
38.357,-2.16,0.59,-12.43
38.398,-2,1.18,-11.61
38.439,-0.2,0.9,-11.22
38.48,0.55,-0.04,-11.3
38.521,-0.31,-0.75,-10.98
38.563,-0.35,-1.8,-10
38.604,-0.63,-1.18,-10.04
38.645,-0.04,-0.98,-11.26
38.686,0.24,-0.94,-12.32
38.727,1.61,-1.29,-14.24
38.768,0,-0.82,-12.47
38.809,-4.47,3.33,-11.96
38.85,-3.49,5.73,-13.42
38.891,-0.82,3.49,-13.22
38.932,-1.61,3.37,-11.96
38.973,-2.04,5.73,-10.28
39.014,-0.94,2.51,-9.02
39.055,-1.8,1.92,-8.55
39.096,-1.84,1.61,-10
39.137,-2.2,0.51,-10.67
39.178,-3.33,0.98,-11.61
39.219,-4.51,0.71,-10.9
39.26,-5.02,0.35,-10.36
39.301,-4.98,1.53,-11.3
39.342,-5.37,3.14,-14.67
39.383,-5.18,2.71,-16.04
39.424,-6.63,2.31,-14.59
39.465,-6.28,1.61,-13.14
39.506,-3.49,1.02,-14.08
39.547,-2.98,2.82,-13.53
39.588,-0.82,1.77,-13.81
39.629,-2.79,2.28,-12.32
39.67,-0.55,1.02,-12.08
39.711,-1.65,1.37,-11.06
39.752,0,0.16,-11.49
39.793,-0.86,-0.24,-11.45
39.834,-0.98,-1.06,-11.34
39.875,-1.41,-1.65,-10.59
39.916,-1.06,-1.53,-10.12
39.957,-0.31,-1.26,-11.45
39.998,0.98,-1.53,-12.75
40.039,2.43,-2.35,-13.57
40.08,-0.71,-0.27,-11.61
40.121,-3.41,3.06,-11.38
40.162,-2.94,4.94,-12.98
40.203,-1.61,4.59,-13.65
40.244,-2.71,5.06,-11.69
40.285,-1.8,6.28,-10.55
40.326,-1.18,3.26,-9.65
40.367,-1.96,2.82,-9.92
40.408,-2.55,2.24,-10.87
40.449,-2.79,0.59,-11.38
40.49,-3.45,0.43,-10.59
40.531,-3.3,0.35,-10.04
40.572,-3.26,0.59,-9.34
40.613,-2.75,0.98,-10.24
40.654,-3.49,2.79,-11.57
40.695,-3.1,1.73,-14.55
40.736,-6,1.65,-14.36
40.777,-9.22,0.35,-13.77
40.818,-6.79,0.59,-14.75
40.859,-3.88,0.9,-14.95
40.9,-3.73,1.33,-14.28
40.941,-1.92,1.73,-13.77
40.982,-1.18,1.65,-12.75
41.023,-2,1.18,-11.61
41.064,0.27,0.51,-12.24
41.105,0,0.16,-11.77
41.146,0.08,-0.43,-11.65
41.187,-0.51,-0.82,-10.51
41.228,-0.47,-1.61,-9.53
41.269,-0.08,-0.86,-10.55
41.31,1.18,-0.9,-11.89
41.351,2.71,-0.82,-13.42
41.392,0.94,-0.16,-12.75
41.433,-3.61,2.31,-12.32
41.474,-4.16,5.81,-14
41.515,-1.61,3.73,-14.63
41.556,-3.65,3.22,-11.81
41.597,-2.43,5.26,-10.36
41.638,-1.41,2.98,-9.14
41.679,-1.84,1.69,-9.22
41.72,-2,0.9,-9.81
41.761,-2.63,0.51,-10.24
41.802,-2.63,0.2,-10.51
41.843,-4.16,0.78,-9.96
41.884,-3.26,0.63,-11.06
41.925,-4.08,1.8,-11.96
41.966,-4.94,2.16,-13.1
42.007,-4.71,2.12,-15.22
42.048,-8.24,4.43,-14.55
42.089,-8.59,3.14,-14.24
42.13,-3.92,1.45,-14.98
42.171,-3.96,2.79,-14.32
42.212,-1.88,2.08,-13.96
42.253,-2.55,2.24,-12.63
42.294,-1.33,2.28,-12.28
42.335,-1.22,1.84,-11.89
42.376,-0.2,0.47,-11.85
42.417,-0.24,0.24,-11.65
42.458,-0.78,-1.88,-10.75
42.499,-0.94,-0.94,-10.04
42.54,-0.51,-0.35,-10.08
42.581,0.08,-1.18,-10.28
42.622,0.67,-0.98,-10.83
42.663,1.57,-0.12,-12.67
42.704,1.06,-0.94,-13.1
42.745,-3.26,1.41,-13.02
42.786,-5.06,4.9,-14.67
42.827,-4.86,4.24,-13.93
42.868,-2.16,3.26,-12.91
42.909,-3.22,4.75,-10.79
42.95,-2.12,1.49,-9.73
42.991,-2.08,2.04,-9.49
43.032,-1.61,1.73,-9.96
43.073,-2.16,1.18,-10.04
43.114,-2.35,1.02,-11.06
43.155,-4.31,1.33,-10.08
43.196,-5.06,1.88,-10.75
43.237,-4.47,2.04,-12.98
43.278,-5.45,2,-14.51
43.319,-5.26,1.37,-15.53
43.36,-7.53,1.37,-14.04
43.401,-7.57,0.47,-12.79
43.442,-3.33,0.24,-13.22
43.483,-2.9,1.53,-12.87
43.524,-2.94,1.22,-13.02
43.565,-3.1,1.65,-12.98
43.606,-2.47,2.24,-12.63
43.647,-1.84,1.49,-12.28
43.688,-1.06,0.08,-11.69
43.729,0.12,-0.08,-11.22
43.77,-0.43,-0.24,-9.96
43.811,-0.51,-1.06,-9.34
43.852,-0.75,-1.22,-8.87
43.893,0.08,-1.37,-10.59
43.934,0.71,-1.8,-12.04
43.975,1.37,-0.35,-13.89
44.016,0.39,0.9,-13.81
44.057,-4.67,5.26,-14.04
44.098,-2.79,5.61,-15.53
44.139,-2.04,1.92,-14.12
44.18,-3.1,3.14,-11.41
44.221,-1.88,4.28,-10.28
44.262,-1.1,1.57,-9.49
44.303,-1.69,0.35,-9.14
44.344,-1.96,0.43,-9.92
44.385,-1.69,-0.55,-11.22
44.426,-2.86,-1.06,-11.38
44.467,-4.98,-0.94,-10.75
44.508,-5.92,-0.51,-11.45
44.549,-7.3,2.55,-12.91
44.59,-6.94,2.08,-14.79
44.631,-7.22,2,-14.98
44.672,-8.83,2.35,-13.57
44.713,-5.06,1.14,-14.12
44.754,-4.16,0.75,-13.61
44.795,-3.41,1.69,-14.32
44.836,-2.16,1.96,-14.59
44.877,-2.71,1.45,-12.63
44.918,-2.43,1.14,-12.36
44.959,-0.98,0.31,-12.08
45,0.16,-0.43,-12
45.041,-0.27,-0.75,-11.45
45.082,-0.59,-0.71,-11.26
45.123,-0.12,-1.02,-11.57
45.164,-0.47,-1.41,-11.38
45.205,0.43,-1.77,-12.47
45.246,1.22,-2.2,-12.67
45.287,-1.1,-1.37,-11.06
45.328,-3.65,1.8,-11.92
45.369,-2.12,4.08,-13.73
45.41,0.27,4.59,-14.59
45.451,-4.63,4.94,-11.45
45.492,-5.06,6.9,-8.9
45.533,0.2,2.31,-8.79
45.574,-1.96,1.77,-8.67
45.615,-2.31,1.49,-9.57
45.656,-3.18,2.39,-11.45
45.697,-6.28,3.06,-10.36
45.738,-5.49,1.18,-10.9
45.779,-7.02,2.55,-10.98
45.82,-6.08,2.43,-12.43
45.861,-7.14,2.98,-14.47
45.902,-7.88,2.82,-14.71
45.943,-9.92,3.92,-12.71
45.984,-4.31,1.26,-14
46.025,-5.69,0.98,-14.47
46.066,-2.98,1.02,-15.61
46.107,-5.18,3.1,-13.18
46.148,-2.16,2.24,-12.91
46.189,-2.86,2.67,-11.73
46.23,-0.39,1.33,-11.45
46.271,-0.04,0.86,-10.4
46.312,0.16,0.63,-10.04
46.353,-0.12,-0.55,-9.14
46.394,0,-0.75,-9.18
46.435,-0.51,-0.04,-10.2
46.476,1.45,-1.14,-11.77
46.517,1.1,-0.24,-13.06
46.558,-0.82,0.9,-13.38
46.599,-4.79,3.3,-14.04
46.64,-5.53,4.98,-14.98
46.681,-2.71,3.18,-15.22
46.722,-4.75,2.79,-12.16
46.763,-2.86,2.94,-10.55
46.804,-2.63,1.37,-8.63
46.845,-2.08,1.69,-8.67
46.886,-2.55,2.16,-9.26
46.928,-2.94,2.28,-10.51
46.969,-4.55,2.47,-11.02
47.01,-4.94,1.41,-11.22
47.051,-5.73,1.1,-10.59
47.092,-4.79,3.1,-11.22
47.133,-2.51,2.47,-13.42
47.174,-2.55,3.14,-14.36
47.215,-5.61,3.84,-12.94
47.256,-5.65,2.67,-12.4
47.297,-4.9,1.29,-13.26
47.338,-4.63,3.57,-13.53
47.379,-3.57,3.02,-13.3
47.42,-3.69,1.88,-12.79
47.461,-3.41,1.53,-12.2
47.502,-2.9,1.26,-11.77
47.543,-1.45,0.27,-11.38
47.584,-0.35,0,-11.22
47.625,-0.63,-0.39,-10.24
47.666,-0.55,-0.9,-10.12
47.707,-0.51,-0.94,-9.81
47.748,-0.16,-0.9,-10.79
47.789,1.29,-0.43,-10.51
47.83,1.92,-0.51,-13.65
47.871,-0.82,0.94,-12.2
47.912,-4.75,3.53,-13.96
47.953,-4.86,5.41,-14.91
47.994,-0.2,3.33,-14.47
48.035,-1.45,4.98,-12
48.076,-1.06,3.61,-10
48.117,-2,2.31,-9.18
48.158,-3.26,2.82,-8.28
48.199,-3.1,0,-11.53
48.24,-3.92,1.69,-10.28
48.281,-3.65,1.1,-11.06
48.322,-4.71,1.02,-10.94
48.363,-5.41,0.75,-10.87
48.404,-6,2.12,-12.04
48.445,-6.32,2.9,-14.32
48.486,-5.53,2.47,-15.49
48.527,-7.73,2.79,-13.18
48.568,-5.22,2.39,-13.57
48.609,-4.67,2.43,-13.96
48.65,-2.9,2.28,-15.18
48.691,-2.24,3.92,-15.85
48.732,-4.08,1.73,-14.32
48.773,-3.22,0.67,-13.49
48.814,-1.77,1.06,-12.63
48.855,-0.47,0,-11.81
48.896,-0.04,-0.27,-10.9
48.937,0,-1.02,-10.04
48.978,-0.12,-1.29,-9.06
49.019,0.67,-1.26,-9.34
49.06,0.63,-1.1,-9.77
49.101,2.28,-0.86,-11.61
49.142,3.06,-0.55,-12.79
49.183,0.31,-0.04,-12.98
49.224,-3.8,3.73,-14.71
49.265,-5.41,7.73,-16.51
49.306,-0.04,3.26,-16.4
49.347,-4.59,4.63,-13.18
49.388,-3.02,4.24,-11.73
49.429,-3.84,2.51,-9.61
49.47,-2.47,2,-9.38
49.512,-2.9,1.88,-9.22
49.553,-1.69,0.63,-9.92
49.594,-3.41,0.67,-9.73
49.635,-4,0.86,-9.85
49.676,-5.53,0.78,-10.4
49.717,-6.04,2.55,-12.63
49.758,-5.88,1.92,-14.87
49.799,-7.18,2.94,-14.63
49.84,-8.51,1.96,-13.42
49.881,-4.47,2.04,-15.65
49.922,-4.12,2.35,-15.89
49.963,-2.51,1.26,-15.61
50.004,-3.14,1.69,-14.63
50.045,-1.69,2.16,-13.61
50.086,0.2,1.65,-12.47
50.127,-0.2,0.98,-10.9
50.168,0.35,0.98,-10.51
50.209,-0.51,0.31,-10.04
50.25,-0.55,-0.63,-9.92
50.291,-0.59,-1.26,-9.61
50.332,-0.47,-1.53,-9.65
50.373,0.55,-1.41,-10.47
50.414,1.53,-1.33,-11.92
50.455,2.98,-1.73,-13.81
50.496,-0.04,-1.22,-13.85
50.537,-4.67,4.28,-15.14
50.578,-3.3,8.08,-17.3
50.619,-0.94,5.69,-16.83
50.66,-4.94,3.69,-13.22
50.701,-4.12,4.86,-11.61
50.742,-3.61,2.94,-9.61
50.783,-2.31,1.61,-8.87
50.824,-2.55,1.84,-8.71
50.865,-1.61,0.67,-9.38
50.906,-3.02,0.59,-9.77
50.947,-3.49,0.2,-9.69
50.988,-4.2,0.04,-9.53
51.029,-3.69,0.82,-10.55
51.07,-4.43,1.61,-11.69
51.111,-3.65,0.98,-14.28
51.152,-6.24,2.79,-13.61
51.193,-8.94,1.73,-14.2
51.234,-6.08,0.31,-16.63
51.275,-4.55,0.75,-16.75
51.316,-3.57,1.73,-15.42
51.357,-2.86,2.12,-14.2
51.398,-1.37,1.77,-13.14
51.439,-0.86,2.35,-12.4
51.48,0.31,1.29,-12.12
51.521,-0.55,0.67,-11.81
51.562,-0.63,-0.59,-11.92
51.603,-1.02,-1.18,-11.34
51.644,-0.35,-2.31,-10.28
51.685,-0.75,-1.33,-9.49
51.726,1.14,-1.88,-9.65
51.767,1.69,0.2,-11.22
51.809,3.88,-0.39,-13.65
51.85,-0.24,0.08,-13.3
51.891,-4,3.37,-14.95
51.932,-5.61,7.57,-15.97
51.973,-1.61,2.71,-15.26
52.014,-4.28,3.53,-11.61
52.055,-2.16,2.47,-11.02
52.096,-2.94,0.98,-9.85
52.137,-2.31,0.78,-10.51
52.178,-3.49,0.94,-10.83
52.219,-3.41,1.06,-11.26
52.26,-4.47,0.51,-10.71
52.301,-5.22,0.55,-10.4
52.342,-4.86,1.33,-11.02
52.383,-5.53,2.47,-11.89
52.424,-5.22,2.59,-14.47
52.465,-6.2,2.55,-15.22
52.506,-8.83,3.26,-14.32
52.547,-5.92,1.45,-15.26
52.588,-3.57,1.65,-15.18
52.629,-3.41,2.2,-15.18
52.67,-2.55,2.12,-14.95
52.711,-1.37,2.12,-14.04
52.752,-2.04,1.57,-13.49
52.793,-1.1,0.39,-13.34
52.834,-0.31,-0.27,-12.67
52.875,-1.06,-0.94,-11.34
52.916,-0.55,-1.53,-9.34
52.957,-0.86,-0.75,-8.59
52.998,0.27,-1.33,-8.28
53.039,1.84,-1.88,-9.34
53.08,2.79,-1.33,-10.98
53.121,2.98,-0.08,-12.83
53.162,-0.35,0.47,-13.22
53.203,-4.82,4.24,-15.26
53.244,-4.43,6.83,-16.55
53.285,-1.33,2.86,-17.34
53.326,-4.98,3.49,-14.32
53.367,-4.24,4.67,-12.4
53.408,-4,2.75,-9.65
53.449,-2.75,1.14,-9.06
53.49,-2.47,0.71,-9.61
53.531,-2.63,-0.16,-10.43
53.572,-3.65,-0.31,-10.55
53.613,-4.59,-0.43,-10.4
53.654,-6.59,0.16,-10.2
53.695,-4.86,1.37,-12.87
53.737,-6.39,1.61,-13.81
53.778,-6.32,1.49,-14.16
53.819,-8,2.47,-13.65
53.86,-6.04,2.51,-14.36
53.901,-4.08,1.29,-14.75
53.942,-3.57,2.35,-15.26
53.983,-3.41,3.37,-14.98
54.024,-1.14,2.43,-14.47
54.065,-3.37,2.16,-12.75
54.107,-0.31,0.86,-12.47
54.148,0.24,0.78,-11.26
54.189,0,-0.04,-10.43
54.23,0.51,-1.18,-9.57
54.271,0.51,-1.14,-8.79
54.312,-0.31,-1.37,-9.22
54.353,0,-2.63,-10.28
54.394,-0.12,-1.92,-13.06
54.435,-0.98,-1.61,-13.81
54.477,-3.14,2.2,-12.79
54.518,-2.24,5.92,-13.61
54.559,-1.49,4.31,-14.98
54.6,-3.61,2.98,-13.85
54.641,-3.3,4.55,-12.4
54.682,-3.45,2.71,-9.53
54.723,-1.96,0.24,-9.26
54.764,-2.12,1.77,-9.81
54.805,-1.37,1.61,-10.51
54.846,-2.08,0.63,-11.06
54.887,-3.02,0.78,-11.1
54.928,-5.22,0.94,-11.22
54.969,-7.06,2.12,-13.14
55.01,-8.47,3.49,-15.22
55.051,-9.18,2.59,-16.04
55.092,-9.57,3.26,-13.93
55.133,-5.14,2.59,-14.51
55.174,-3.61,2.35,-14.83
55.215,-4.51,2.12,-14.98
55.256,-2.43,3.26,-15.06
55.297,-3.22,1.49,-14.16
55.338,-2.79,1.18,-13.61
55.379,-0.98,-0.04,-13.89
55.42,-0.27,-0.27,-13.81
55.461,-1.18,-1.33,-12.63
55.502,-1.14,-1.96,-11.3
55.543,-0.75,-1.61,-10.67
55.584,0.75,-1.69,-10.63
55.625,1.61,-1.96,-10.2
55.666,4.04,-1.22,-11.02
55.707,3.33,-0.63,-10.71
55.748,-1.84,1.57,-10.94
55.789,-0.27,4.94,-15.49
55.83,-0.78,4.12,-16.04
55.871,-2.9,2.28,-15.22
55.912,-4.63,5.41,-13.96
55.953,-4.94,4.31,-12.71
55.994,-5.22,2.35,-12.36
56.035,-5.53,0.82,-11.81
56.076,-4.35,0.31,-12.47
56.117,-4.79,0.31,-10.67
56.158,-5.88,0.59,-9.89
56.2,-6.28,2.04,-10.94
56.241,-5.41,2.43,-14.12
56.282,-7.57,4.63,-15.89
56.323,-7.45,0.08,-14.87
56.364,-7.53,1.22,-14.36
56.405,-2.71,0.78,-15.53
56.446,-3.73,1.18,-16.48
56.487,-3.8,2.51,-16.91
56.528,-4.79,1.14,-15.93
56.569,-0.2,0.9,-14.63
56.61,0.08,1.77,-13.1
56.651,-0.67,0.31,-12.71
56.692,-0.55,-0.9,-11.81
56.733,-1.06,-1.77,-10.24
56.774,-1.18,-2.04,-8.63
56.815,1.41,-1.45,-8.98
56.856,0.55,-1.1,-8.51
56.898,2.55,-0.71,-10.47
56.939,3.14,-0.51,-12.55
56.98,-0.04,-1.06,-13.22
57.021,-3.45,2.39,-15.61
57.062,-4.35,4.67,-17.1
57.103,-2.51,1.1,-16.67
57.144,-5.81,4.86,-10.75
57.185,-2.98,4.75,-11.26
57.226,-2.24,0.98,-10.36
57.267,-2,1.22,-11.1
57.308,-3.84,1.22,-11.57
57.349,-5.1,1.84,-12
57.39,-6.35,1.26,-11.22
57.431,-6.79,1.18,-11.41
57.472,-7.34,3.53,-12.2
57.513,-6.71,2.94,-14.08
57.554,-5.92,3.1,-15.89
57.595,-7.14,4.31,-15.02
57.636,-4.9,2,-15.34
57.677,-3.65,0.94,-15.22
57.718,-3.14,3.06,-16.16
57.759,-2.59,1.06,-15.93
57.8,-2.31,1.02,-14.87
57.841,-1.8,1.22,-13.81
57.882,-0.67,0.27,-12.63
57.923,0.24,-0.67,-12.12
57.964,0.24,-1.73,-10.83
58.005,-0.12,-1.84,-9.69
58.046,0.31,-1.53,-9.02
58.087,0.86,-1.8,-9.26
58.128,0.71,-0.9,-10.43
58.169,1.14,-0.9,-11.92
58.21,2.75,-1.1,-12.71
58.251,-3.33,2.24,-12.2
58.292,-2.98,5.73,-15.81
58.333,-3.73,5.73,-15.34
58.374,-4.31,2.9,-13.81
58.415,-3.77,6.83,-12.94
58.456,-3.49,4.16,-10.87
58.497,-3.02,1.65,-10.83
58.538,-3.69,2.9,-11.73
58.579,-2.82,2.39,-11.89
58.62,-4.24,1.41,-10.87
58.661,-5.26,1.69,-10.16
58.702,-6.35,1.84,-10.08
58.743,-6.16,2.43,-11.1
58.784,-6.12,2.47,-13.65
58.825,-7.1,2.47,-15.22
58.866,-9.38,1.92,-13.81
58.907,-5.41,0.08,-14.75
58.948,-4.47,1.18,-15.38
58.989,-3.61,1.96,-16.55
59.03,-2.79,0.51,-16.24
59.071,-3.37,1.73,-14.91
59.112,-1.57,1.88,-13.81
59.153,0.67,1.06,-12.94
59.194,0.04,-0.16,-11.85
59.235,0.31,-0.35,-11.02
59.276,-0.16,-0.9,-9.45
59.317,0.08,0.08,-8.71
59.358,0.78,-1.57,-8.24
59.399,0.98,-0.9,-9.22
59.44,1.69,0.82,-12.16
59.481,2.75,0.47,-13.06
59.522,-2.43,1.41,-12.91
59.563,-4.51,3.53,-15.22
59.604,-5.3,5.3,-16.28
59.645,-3.49,1.49,-14.91
59.686,-4.71,4.2,-12.2
59.727,-2.2,2.35,-10.4
59.768,-2.08,0.47,-9.73
59.809,-2.59,2.2,-10.51
59.85,-3.06,1.41,-11.14
59.891,-3.88,1.69,-11.53
59.932,-4.39,0.78,-11.34
59.973,-5.84,0.43,-10.2
60.014,-5.53,2.43,-12.24
60.055,-6.67,3.45,-14.55
60.096,-7.41,2.94,-15.97
60.137,-9.77,3.69,-15.34
60.178,-5.26,1.65,-13.81
60.219,-3.84,1.53,-12.83
60.26,-1.73,2.24,-14.24
60.301,-2.2,2.31,-14.79
60.342,-3.18,2.39,-14.16
60.383,-2.55,1.29,-13.73
60.424,-2.43,1.1,-13.02
60.465,-0.86,-0.24,-12.16
60.506,-0.9,-0.2,-11.49
60.547,-0.9,-0.71,-10.79
60.588,-0.63,-2.12,-9.65
60.629,0.31,-1.45,-9.92
60.67,-0.2,-1.14,-9.81
60.711,0.59,-0.35,-11.96
60.752,3.14,0.86,-12.32
60.793,0.75,1.02,-12.16
60.834,-2.47,2.82,-13.49
60.875,-4.39,5.02,-14.95
60.916,-4.63,2.39,-13.57
60.957,-3.8,4.59,-11.45
60.998,-0.78,5.18,-10.59
61.039,-1.92,1.26,-9.85
61.08,-2.2,1.14,-11.53
61.121,-4.51,2.75,-12.47
61.162,-6.59,1.69,-14.04
61.203,-8.59,2.67,-11.65
61.244,-8.47,2.16,-10.51
61.285,-6.16,3.88,-12.04
61.326,-3.8,2.71,-14.47
61.367,-5.1,3.88,-16.04
61.408,-6.47,4.47,-15.14
61.449,-3.14,-0.31,-15.1
61.49,-4.9,0.2,-14.63
61.531,-4.39,1.37,-14.67
61.572,-2.9,0,-13.57
61.613,-0.67,0,-13.22
61.654,-0.27,-0.35,-12.2
61.695,0.59,0.08,-12.43
61.736,1.14,-0.35,-11.49
61.777,0.78,-1.53,-9.81
61.818,0.71,-1.02,-8.87
61.859,1.61,-0.94,-8.51
61.9,0.82,0.86,-10.04
61.941,-2.43,0.55,-11.85
61.982,-2.39,0.75,-15.3
62.023,-9.3,-1.61,-18.95
62.064,-20.01,-2.35,-13.18
62.105,-14,5.53,-16.67
62.146,-13.18,0.59,-10.9
62.187,-9.3,2.86,-12.12
62.228,-12.28,2.9,-7.26
62.269,-4.79,-1.92,-7.92
62.31,-5.18,-2.51,-5.65
62.351,-5.02,-0.31,-5.77
62.392,-0.55,0.78,-4.63
62.433,-2.86,-1.06,-6.83
62.474,-5.18,-3.33,-5.26
62.515,-6.75,1.29,-5.88
62.556,-5.57,-0.94,-8.04
62.597,-11.77,-6.47,-5.06
62.638,-10.75,2.28,-5.06
62.679,-4.04,-13.49,-5.41
62.72,-10.71,-4.98,-1.45
62.761,-5.57,-3.06,-3.8
62.802,-8.59,-10,-4.67
62.843,-6.67,-3.49,-4.86
62.884,-10.71,-4.08,-5.77
62.925,-6.86,-4.9,-5.33
62.966,-4.86,-2.47,-4.98
63.007,-9.69,-5.37,-3.41
63.048,-6.94,-4.79,-5.3
63.089,-10,-6.59,-4.71
63.13,-6.04,-3.53,-5.53
63.171,-8.63,-3.92,-4.51
63.212,-8.98,-4,-4.9
63.253,-8.71,-4.2,-5.14
63.294,-8.55,-5.02,-4.82
63.335,-8.98,-3.57,-5.96
63.376,-7.88,-5.81,-5.37
63.417,-10.94,-3.06,-7.02
63.458,-8.28,-4.71,-7.22
63.499,-8.2,-5.18,-5.61
63.54,-5.33,-7.26,-6.55
63.581,-5.69,-7.3,-6.39
63.622,-9.06,-3.22,-7.37
63.663,-7.18,-7.26,-5.81
63.704,-5.14,-4.9,-5.37
63.745,-5.73,-5.61,-4.82
63.786,-5.53,-5.92,-5.37
63.827,-6,-6.16,-5.3
63.868,-3.69,-9.02,-5.73
63.909,-4.75,-7.81,-6.47
63.95,-4.59,-8.71,-7.65
63.991,-5.92,-9.77,-7.22
64.032,-4.71,-6.12,-7.22
64.073,-4.43,-7.49,-5.92
64.114,-4.04,-9.1,-6.39
64.155,-4.98,-7.96,-6.67
64.196,-4.47,-6.86,-5.81
64.237,-4.31,-5.81,-4.98
64.278,-4.47,-7.26,-4.9
64.319,-5.22,-8.24,-4.67
64.361,-3.92,-8.24,-5.77
64.402,-5.61,-6.83,-4.94
