NAME:,walk5,,
EXPERIMENT TIME:,24-05-22 16:33,,
Activity,Walking,,
COUNT OF ACTUAL STEPS,67,,
,,,
Time [sec],ACC X,ACC Y,ACC Z
0,-2.9,10.87,2.16
0.045,-3.37,11.65,3.41
0.09,-4.43,11.34,4.24
0.134,-6.75,7.45,2.51
0.178,-7.14,5.92,2.24
0.221,-5.77,9.02,3.45
0.265,-4.63,8.43,3.8
0.309,-5.06,8.67,2.43
0.353,-5.37,6.39,1.84
0.396,-5.02,6.83,1.22
0.44,-4.55,7.96,1.57
0.484,-4.16,7.69,0.55
0.528,-4.2,8.12,0.08287204
0.617,-4.75,8.94,-0.67
0.662,-5.1,7.65,-1.02
0.707,-6.51,9.81,-0.24
0.753,-6.24,10.47,-1.61
0.798,-10.71,11.45,2.24
0.843,-6.63,11.49,5.77
0.887,-1.92,4.28,4.28
0.931,-7.3,5.81,2.59
0.974,-6.47,6.55,0.82
1.018,-4.98,6.59,2
1.062,-4,7.3,2.43
1.106,-4.55,8.63,2.47
1.149,-4.59,8.04,1.61
1.193,-4.71,8.12,0.55
1.237,-3.77,8.08,0.75
1.281,-4.16,8.51,0.63
1.324,-4.24,8.67,0.94
1.368,-4.28,9.22,1.37
1.412,-3.65,9.69,1.41
1.457,-3.18,10.94,1.29
1.501,-2.08,11.65,2.82
1.546,-3.96,11.65,6.43
1.591,-6.59,10.63,6.2
1.635,-8.32,3.33,0.82
1.679,-5.92,9.49,4.12
1.722,-3.06,8.28,3.1
1.766,-4.04,6.98,2.2
1.81,-5.53,7.1,1.02
1.854,-5.96,6.28,0.39
1.897,-5.92,8.04,1.14
1.941,-5.26,9.45,1.69
1.985,-4.71,8.28,0.47
2.03,-4.24,7.45,-0.51
2.074,-5.06,8.83,-0.24
2.118,-5.06,8.67,0.08
2.162,-4.9,9.22,0.43
2.207,-4.51,9.92,-0.31
2.251,-4.39,9.26,-1.61
2.296,-9.49,8.63,-0.12
2.342,-12.08,11.38,6.55
2.386,-3.77,7.57,6.98
2.43,-7.14,4.94,3.26
2.473,-7.53,7.49,3.02
2.517,-6.04,4.98,1.53
2.561,-4.79,5.88,1.22
2.605,-5.37,9.06,2.67
2.648,-4.04,7.81,2.39
2.692,-5.06,7.65,1.84
2.736,-4.86,8.59,1.73
2.78,-3.84,7.37,1.06
2.823,-4.51,8.67,1.22
2.867,-3.84,8.51,1.61
2.911,-3.77,8.71,1.77
2.955,-4.51,9.1,1.45
2.998,-4.24,9.49,1.02
3.043,-4.24,10.67,1.02
3.088,-2.9,10.98,2.82
3.133,-4.98,10.51,5.61
3.178,-7.69,10.67,5.22
3.221,-6.63,2.75,0.94
3.265,-4.86,7.73,2.59
3.309,-3.96,7.96,3.18
3.353,-5.18,7.45,2.63
3.396,-5.92,6.94,1.37290072
3.886,-14.95,12.67,4.47
3.93,-2.82,6.75,4.94
3.973,-5.18,3.88,3.77
4.017,-6.75,7.45,2.2
4.061,-6.04,5.84,1.41
4.105,-5.02,7.92,2.75
4.148,-4.39,8.08,2.24
4.192,-5.06,8.32,1.77
4.236,-5.1,8.59,1.22
4.28,-4.79,8.67,1.22
4.323,-4.39,8.39,1.45
4.367,-3.37,8.79,1.37
4.411,-3.65,8.63,1.37
4.455,-3.73,9.1,1.3729113
4.542,-3.92,9.57,0.98
4.586,-3.26,9.57,0.39
4.63,-2.9,9.89,2.28
4.674,-5.3,10.4,4.2
4.719,-8.04,10.51,6.43
4.763,-7.57,4.79,1.06
4.807,-4.43,8.2,3.3
4.85,-4,9.02,2.24
4.894,-4.39,8.55,2.31
4.938,-4.47,6.63,1.26
4.982,-5.41,6.55,0.39
5.025,-5.61,9.14,1.8
5.069,-5.26,8.63,1.33
5.113,-4.86,7.61,0.31
5.157,-4.63,8.79,0.75
5.2,-4.63,8,0.31
5.245,-4.94,8.24,-0.12
5.289,-4.94,8.94,0.16
5.334,-4.55,9.06,-0.08
5.379,-5.02,9.3,-0.67
5.423,-5.14,9.77,-1.26
5.469,-5.06,10.2,-1.53
5.514,-8.04,9.49,-0.59
5.56,-12.2,11.3,3.73
5.604,-4.63,6.43,4.82
5.647,-3.84,3.88,2.08
5.692,-7.45,10.36,3.1
5.736,-5.41,4.86,0.35
5.78,-5.26,6.83,0.9
5.823,-4.98,8.36,1.8
5.867,-4.98,9.14,3.02
5.911,-4.39,8.55,2.63
5.955,-3.3,7.96,2.16
5.998,-3.49,8.55,1.69
6.042,-3.22,8.51,1.84
6.086,-3.69,8.2,1.69
6.13,-4.43,9.1,1.1
6.173,-4.59,8.79,0.78
6.217,-4.86,9.18,0.63
6.262,-4.12,10.4,1.1
6.307,-3.45,10.67,0.63
6.351,-3.84,11.1,2.9
6.396,-3.88,11.49,7.49
6.44,-9.06,8,4.28
6.484,-6.08,4.94,1.8
6.529,-5.06,10.55,4.47
6.572,-3.1,8.08,3.14
6.616,-3.65,7.49,2.71
6.66,-6.04,6.83,0.47
6.704,-6.28,7.69,1.18
6.747,-6,8.08,1.14
6.791,-4.55,7.41,0.51
6.835,-4.55,8.2,0.55
6.88,-5.22,8.12,-0.24
6.924,-5.77,7.96,-0.27
6.968,-4.86,9.1,0.55
7.013,-5.53,8.47,-0.7129369
7.103,-5.1,8.79,-1.26
7.147,-5.41,8.36,-1.88
7.192,-5.84,8.59,-2.51
7.238,-10.98,10.08,2.51
7.284,-13.85,13.65,7.18
7.328,-0.94,5.45,6.16
7.371,-4.59,8.75,4.12
7.415,-6.04,5.77,1.37
7.459,-4.94,6.28,0.75
7.503,-4.94,8.55,2.2
7.546,-3.92,8.79,2.86
7.59,-4.86,7.77,1.61
7.634,-5.02,8.2,1.8
7.678,-4.67,8.12,1.37
7.721,-4.55,8.43,1.06
7.765,-3.96,8.28,1.57
7.809,-4.86,9.02,1.33
7.853,-3.57,8.12,1.41
7.896,-3.14,9.41,1.45
7.94,-3.22,9.57,1.22
7.984,-3.45,9.45,0.71
8.029,-2.79,10.63,1.06
8.074,-3.22,10.63,-0.12
8.118,-6.39,9.89,6.47
8.164,-8.2,11.02,10.79
8.209,-12.16,6.43,3.92
8.253,-4.51,8.16,2.47
8.296,-2.59,7.92,3.18
8.34,-3.33,5.53,2.04
8.384,-6.39,7.81,1.84
8.428,-6.94,8.39,1.84
8.471,-7.06,6.55,0.16
8.515,-4.9,6.9,0
8.559,-4.31,7.65,0.43
8.604,-4.67,7.73,-0.08
8.648,-5.61,8.08,-0.39
8.693,-5.61,8.43,-0.04
8.737,-5.61,8.83,0.12
8.782,-5.33,9.41,-0.24
8.826,-4.55,9.18,-1.33
8.871,-5.57,8.12,-2.16
8.916,-6.08,8.36,-2.12295594
9.051,-1.57,4.98,3.88
9.095,-4.94,6.2,3.92295771
9.358,-5.49,8.67,1.26
9.401,-5.1,7.81,1.22
9.445,-4.59,8.43,1.61
9.489,-4.59,8.71,1.41
9.533,-4.31,8.47,1.49
9.576,-4,8.87,1.57
9.62,-3.53,9.18,1.33
9.664,-3.1,9.57,1.18
9.708,-3.33,9.85,0.9
9.753,-3.53,10.71,1.1
9.797,-4.59,11.1,4.39
9.841,-4.9,9.96,9.49
9.886,-11.92,6.2,1.37
9.93,-5.06,7.65,2.9
9.974,-4.67,10.2,2.67
10.018,-3.14,4.82,1.61
10.062,-5.1,6.28,1.8
10.106,-7.26,7.92,0.94
10.149,-7.1,7.92,0.9
10.193,-5.61,7.37,0.63
10.237,-4.67,7.57,0.51
10.281,-5.22,7.73,0.08
10.324,-5.1,8.94,0.39
10.369,-5.33,8.55,-0.04
10.413,-5.06,8.51,0.08
10.458,-5.1,8.63,-0.63
10.503,-5.06,8.83,-1.06
10.547,-5.49,8.63,-1.88
10.592,-5.53,9.41,-2.24
10.637,-8.28,8.59,-0.94
10.683,-12.67,11.85,2.59
10.726,-5.53,7.96,4.59
10.77,-1.73,3.8,2.98
10.814,-7.02,9.45,3.26
10.858,-5.33,6.71,0.31
10.901,-5.06,7.69,1.53297577
10.989,-4.04,7.45,1.88
11.033,-4.59,7.85,1.65
11.076,-4.71,9.1,1.84
11.12,-4.75,8.79,1.41
11.164,-4.55,8.94,1.06
11.208,-3.8,8.43,1.14
11.251,-4,8.36,0.94
11.295,-3.88,8.87,1.1
11.339,-4.12,9.1,0.39
11.383,-3.92,9.89,0.59
11.428,-3.06,10.47,0.55
11.472,-3.61,11.06,3.37
11.517,-4.79,12.51,9.41
11.561,-8.79,6.79,2.9
11.605,-5.06,5.02,0.86
11.648,-4.2,8.79,2.47
11.692,-4.39,7.14,2.2
11.736,-5.26,7.02,1.61
11.78,-6.47,7.57,1.14
11.823,-6.47,7.85,0.63
11.867,-5.18,7.92,1.18
11.911,-4.59,7.92,0.31
11.955,-4.75,7.45,0.12
11.999,-4.94,8.59,-0.16
12.044,-4.94,9.34,-0.12
12.089,-5.02,9.02,-0.24
12.134,-5.1,9.02,-0.39
12.179,-5.37,9.45,-1.02
12.223,-5.33,9.57,-1.8
12.268,-5.77,8.83,-2.63
12.313,-9.38,11.41,0.98
12.359,-11.81,11.96,4.94
12.402,-3.1,4.39,4.12
12.446,-5.3,6.9,3.22
12.49,-5.96,6.71,1.88
12.534,-5.61,7.1,1.65
12.577,-4.71,8.32,1.96
12.621,-4.47,8.94,1.96
12.665,-4,8,1.37299341
12.752,-4.86,8.59,1.8
12.796,-4.94,9.06,1.69
12.84,-3.88,8.94,1.84
12.884,-3.88,8.79,1.53
12.927,-3.77,8.94,1.92299603
13.015,-3.84,8.83,0.82
13.059,-3.8,8.83,0.86
13.102,-3.88,9.3,0.59
13.146,-4.67,9.96,0.39
13.191,-4.24,10.04,3.41
13.236,-4.9,11.18,4.94
13.281,-8,12.59,8.24299956
13.368,-3.14,6.83,2.43
13.412,-3.65,9.96,3.41300088
13.499,-5.18,7.77,2.12
13.543,-5.84,6.75,0.55
13.587,-5.65,7.41,0.78300263
13.674,-4.86,7.96,1.3730035
13.806,-5.45,8.83,0.27
13.849,-4.75,8.87,0.24
13.894,-4.67,8.59,-0.16
13.939,-4.67,8.67,-0.47
13.984,-4.59,8.43,-1.02
14.029,-4.28,9.38,-1.18
14.073,-4.31,9.65,-0.86
14.118,-7.1,10.87,0.35
14.164,-12.75,13.1,1.84
14.208,-5.77,5.92,3.3
14.251,-2.59,1.53,1.29
14.296,-8.51,10.59,3.18
14.34,-6,5.84,1.1
14.384,-6.63,7.77,1.41301059
14.559,-5.02,8.39,0.63301234
14.646,-4.08,8.55,1.06301322
14.777,-4.08,9.02,0.94301453
14.865,-3.88,9.14,0.27
14.91,-3.65,10.4,0.31
14.955,-3.3,12.43,4.16
14.999,-3.61,11.81,8.16
15.043,-8.9,9.26,1.92
15.087,-5.92,2.16,0.12
15.132,-4.86,10.87,4
15.175,-3.8,7.92,2.75
15.219,-5.96,7.88,2.31
15.263,-5.92,6,0.98
15.307,-5.33,6.39,0.35
15.35,-4.94,8.55,1.37
15.394,-4.98,9.1,1.06
15.438,-5.02,8.39,0.24
15.483,-4.63,7.85,-0.47
15.527,-4.79,7.96,-0.9
15.572,-4.71,8.59,-0.98
15.617,-4.08,9.41,-0.16
15.663,-4.55,10.9,-0.63
15.709,-4.75,10.67,-1.92
15.755,-9.96,11.65,-0.04
15.8,-12.43,10.87,4.79
15.844,-3.45,4.47,2.04
15.888,-3.14,4.67,3.22
15.932,-7.49,9.34,2.2
15.975,-5.61,6.75,1.53
16.019,-5.37,6.98,1.33
16.063,-4.75,8.2,1.96
16.107,-4.2,7.81,1.96
16.15,-4.55,7.81,1.69
16.194,-5.1,8.55,1.41
16.238,-4.9,8.75,1.41
16.282,-4.16,8.98,1.22
16.325,-3.69,8.75,1.1
16.369,-3.92,8.9,0.71
16.413,-3.53,9.02,0.59
16.457,-3.84,8.98,0.43
16.5,-3.57,9.06,0.43
16.545,-3.26,10.67,0.75
16.59,-2.9,10.79,3.77
16.635,-6.24,11.45,5.73
16.68,-8.28,12.83,8.08
16.724,-7.57,1.41,-0.75
16.768,-4.39,8.16,2.67
16.813,-4.31,10.2,2.67
16.857,-4.98,7.77,2.67
16.9,-5.18,7.53,1.49
16.944,-6,6.67,0.24
16.988,-5.92,8.16,1.06
17.032,-5.06,8.75,1.29
17.075,-4.82,9.18,1.02
17.12,-4.79,7.34,-0.24
17.165,-5.45,8.59,-0.35
17.21,-4.59,8.63,-0.35
17.255,-4.35,8.75,-0.51
17.299,-4.71,8.94,-1.02
17.344,-5.26,9.61,-1.18
17.389,-5.57,9.77,-1.84
17.434,-6.63,9.1,-2.51
17.48,-10.28,11.45,0.9
17.524,-7.69,10.43,6.55
17.568,-1.96,2.39,2.59
17.612,-6.98,7.14,2.75
17.656,-5.53,7.61,1.61
17.699,-5.49,6.35,0.94
17.743,-5.02,8.28,1.73
17.787,-4.47,8.24,1.96
17.831,-4.31,7.73,1.06
17.874,-5.06,8.71,1.57
17.918,-4.98,8.83,1.61
17.962,-4.39,8.71,1.26
18.006,-3.1,8.2,1.29
18.049,-3.45,8.47,1.61
18.093,-3.96,9.1,1.29
18.137,-4.04,9.41,0.94
18.181,-4.2,9.57,0.24
18.224,-3.45,9.77,0.12
18.269,-2.94,9.92,-0.24
18.314,-3.8,12.08,3.84
18.359,-5.96,11.49,9.06
18.402,-9.14,5.14,1.69
18.446,-3.96,7.69,2.31
18.491,-3.88,10.2,3.53
18.535,-3.65,6.35,2.47
18.579,-5.57,7.96,1.73
18.622,-6.59,7.1,0.59
18.666,-6.43,7.14,0.75
18.71,-4.79,7.73,1.41305386
18.797,-4.94,8.36,0
18.842,-5.02,8.24,-0.31
18.887,-5.26,8.51,-0.2
18.931,-4.9,8.94,0.24
18.975,-4.43,9.18,-0.24
19.02,-4.04,9.3,-0.9
19.065,-4.31,9.3,-1.22
19.11,-5.18,8.87,-2.28
19.156,-10.59,9.96,-0.16
19.2,-9.77,13.3,9.49
19.244,-1.45,2.86,2.63
19.288,-6.94,5.69,2.12
19.332,-6.51,7.3,1.73
19.375,-6.12,6.39,0.94
19.419,-4.98,8.63,2.39
19.463,-4.39,8.59,2.31
19.507,-4,7.49,1.73
19.55,-4.71,7.88,1.18
19.594,-5.45,8.43,1.53
19.638,-4.75,8.59,1.69
19.682,-4.2,8.9,2.08
19.725,-4.63,8.94,1.45
19.769,-4.2,9.26,1.26
19.813,-3.45,8.94,0.94
19.857,-3.77,9.1,0.63306532
19.944,-3.3,8.94,0.24306621
20.61,-6.24,8.39,-0.35307286
20.877,-4.59,9.1,-1.8
20.922,-8.51,10.47,0.43
20.968,-13.81,14.95,7.77
21.012,-4.35,5.77,3.73
21.056,-4.31,3.45,2.51
21.1,-7.06,11.73,4.67
21.144,-5.61,5.02,0.86
21.188,-5.84,8.08,1.53
21.232,-5.02,8.79,2.12
21.275,-3.84,7.57,1.96
21.319,-4.75,8.2,1.65
21.363,-4.82,8.47,1.37
21.407,-4.86,8.87,1.14
21.45,-4.47,8.83,0.78
21.494,-4.24,8.63,0.51
21.538,-3.65,8.9,0.67
21.582,-2.55,8.83,0.71
21.625,-3.02,9.18,0.67
21.669,-3.18,9.69,0.67
21.714,-3.73,11.69,4.94
21.759,-5.18,12.4,7.81
21.804,-7.02,11.22,6
21.848,-6.75,2.94,-0.39
21.892,-5.77,7.3,2.75
21.936,-4.67,7.65,3.77
21.98,-5.73,8.94,3.02
22.023,-5.69,7.61,1.88
22.067,-5.69,6.67,0.78
22.111,-5.57,6.86,0.98
22.155,-5.26,8.32,1.8
22.198,-5.18,8.75,1.22
22.242,-4.9,8.75,0.67
22.287,-4.9,8.08,-0.16
22.332,-5.18,8.55,-0.43
22.376,-4.79,7.96,-0.47
22.421,-4.31,8.71,-0.31
22.466,-4.75,9.61,-0.63
22.512,-5.18,10.08,-1.18
22.557,-4.63,9.45,-2.08
22.6,-8.28,8,0.43
22.646,-13.26,12.71,6.35
22.69,-4.79,6,3.65
22.734,-3.06,2.43,2.71
22.777,-8.2,9.77,3.14
22.821,-5.45,5.88,0.9
22.865,-5.77,7.14,1.26
22.909,-4.79,8.63,1.96
22.952,-4.04,8.04,1.84
22.996,-3.84,7.57,1.37
23.04,-5.02,8.59,1.22
23.084,-5.61,8.87,1.18
23.127,-4.51,9.06,1.41
23.171,-4.08,9.38,1.73
23.215,-4.31,8.94,1.02
23.259,-4.08,8.79,0.75
23.302,-3.41,8.75,0.35
23.346,-2.82,8.39,0.47
23.39,-3.53,9.38,0.63
23.435,-4.2,10.83,0.67
23.48,-4.08,11.85,2.63
23.524,-5.1,12,3.84
23.569,-6.24,10.36,6.71
23.613,-7.37,4.39,1.49
23.657,-4.67,8.04,2.43
23.701,-4.47,10.98,3.53
23.745,-3.53,7.73,2.86
23.789,-4.94,7.45,1.45
23.834,-5.33,6.2,-0.2
23.877,-5.88,8.04,0.86
23.921,-5.1,8.36,0.98
23.966,-4.39,10.08,0.86
24.011,-4.71,8.32,-0.2
24.056,-4.67,8.51,-0.35
24.1,-4.94,8.47,-0.35
24.145,-4.79,8.87,-0.35
24.19,-5.18,8.16,-0.9
24.235,-5.18,8.79,-1.18
24.28,-5.18,9.65,-1.29
24.324,-4.94,9.96,-1.65
24.369,-6.55,9.45,-2.43
24.415,-10.71,11.06,3.14
24.46,-8.98,11.73,6.43
24.504,-0.94,2.55,2.04
24.547,-6.63,7.45,2.94
24.591,-6.2,7.57,2.2
24.635,-6.55,7.06,1.41
24.679,-5.06,8.55,2
24.722,-4.35,8.55,1.69
24.766,-3.77,7.61,0.98
24.81,-4.98,8.75,1.22
24.854,-5.14,8.63,1.02
24.897,-4.9,8.67,1.18
24.941,-4.59,8.94,1.22
24.985,-4.24,8.75,1.06
25.029,-4.12,8.83,0.86
25.072,-3.96,8.79,0.51
25.116,-2.98,8.87,0.51
25.16,-2.9,9.38,0.78
25.205,-3.77,10.51,0.43
25.249,-3.73,10.24,3.33
25.294,-5.06,11.45,4.82
25.339,-9.1,11.14,8.16
25.383,-7.06,3.18,0.98
25.426,-4.51,9.65,3.73
25.47,-4.16,8.75,2.59
25.514,-4.39,7.45,2.98
25.558,-5.41,8,1.14
25.601,-5.49,7.02,0.47
25.645,-6.04,7.1,0.63
25.689,-5.14,8.08,1.14
25.733,-4.51,9.41,1.26
25.776,-4.51,8.08,0.16
25.821,-5.14,8.32,-0.51
25.866,-5.3,8.16,-0.43
25.911,-5.26,8.63,-0.27312588
26.268,-7.26,7.02,2.31312944
26.356,-5.81,6.55,1.77
26.399,-5.3,8.43,1.88
26.443,-4.51,8.9,2
26.487,-3.69,7.34,1.37
26.531,-4.71,8.12,1.18
26.574,-5.26,8.55,1.1
26.618,-4.35,8.79,1.33
26.662,-4.24,9.1,1.53
26.706,-4,8.63,1.18
26.749,-3.88,8.83,0.94
26.793,-3.73,8.9,0.98
26.837,-3.73,9.14,0.27
26.881,-3.57,9.61,0.51
26.924,-3.61,9.77,0.51
26.969,-3.37,10.04,3.02
27.014,-5.37,12.04,3.22
27.059,-4.51,11.45,8.47
27.102,-7.65,5.1,1.26
27.146,-4.2,6.08,1.61
27.191,-4,10.9,3.41
27.235,-4.35,7.73,2.47
27.279,-5.02,6.98,2.24
27.322,-6,6.55,0.63
27.366,-6.67,7.65,0.98
27.41,-5.33,8.71,1.45
27.454,-4.31,8.47,0.78
27.497,-4.71,7.69,0.12
27.542,-5.33,8.16,-0.16
27.587,-5.22,8.98,-0.08
27.632,-5.06,8.67,-0.16
27.676,-5.02,8.71,-0.27
27.721,-5.26,8.98,-0.86
27.766,-5.61,9.22,-1.53
27.811,-5.45,9.69,-2.08
27.856,-7.37,8.75,-1.61
27.901,-11.89,11.81,4.16
27.945,-6.59,9.22,6.16
27.989,-1.69,3.92,2.71
28.033,-6.94,7.53,3.14
28.076,-5.53,5.84,0.94
28.12,-6,7.3,1.33
28.164,-4.63,9.02,2.47
28.208,-3.96,8.63,2.24
28.251,-4.31,7.85,1.1
28.295,-4.35,8.39,1.1
28.339,-4.55,8.9,1.22
28.383,-4.31,9.18,1.37
28.426,-4.24,9.14,1.26
28.47,-3.88,8.98,0.78
28.514,-3.49,8.51,0.55
28.558,-3.69,8.75,0.35
28.601,-2.94,8.9,0.55
28.645,-2.79,9.06,0.24
28.69,-3.33,10.08,0.63
28.735,-4.12,10.67,0.04
28.78,-3.65,12.59,4.71
28.824,-5.02,11.18,6.24
28.868,-8.9,8.63,3.88
28.912,-5.73,2.86,0.31
28.956,-4.16,8.47,3.22
28.999,-3.88,9.38,2.47
29.043,-3.73,7.34,2.43
29.087,-5.33,8.32,1.65
29.131,-6.55,7.22,0.39
29.174,-6.08,8.08,0.75
29.218,-4.47,9.14,1.37
29.262,-4.04,8.55,0.08
29.307,-5.14,8.08,-0.47
29.351,-5.26,8.24,-0.47
29.396,-4.47,9.14,-0.47
29.441,-4.55,8.51,-0.43
29.486,-5.14,9.3,-0.71
29.532,-4.59,10.04,-0.82
29.576,-4.31,9.38,-1.84
29.621,-5.53,9.3,-2.16
29.666,-8.87,10.98,0.43
29.712,-10.36,12.16,6.55
29.756,-2.63,3.33,3.22
29.799,-7.45,7.92,2.67
29.843,-6.04,8.39,2.51
29.887,-6.71,5.96,1.14
29.931,-4.9,8.9,1.8
29.974,-3.69,8.47,2.08
30.018,-3.69,7.53,1.84
30.062,-5.1,8.28,1.37
30.106,-5.14,8.47,1.02
30.149,-4.51,8.39,1.18
30.193,-4.55,8.98,1.37
30.237,-4.67,9.1,1.02
30.281,-3.77,8.98,1.1
30.324,-3.61,8.94,0.75
30.368,-2.9,8.55,0.51
30.412,-2.94,8.55,0.27
30.457,-3.14,10.55,0.67
30.501,-4.04,11.1,5.26
30.546,-5.26,13.3,7.65
30.59,-8.47,7.77,3.1
30.635,-7.53,2.51,-0.43
30.678,-5.37,8.43,3.22
30.722,-3.77,8.79,3.37
30.766,-5.14,8,2.71
30.81,-5.61,7.57,1.69
30.853,-5.84,6.28,0.24
30.897,-5.69,8.28,1.69
30.941,-5.61,9.18,1.18
30.985,-4.55,9.18,1.22
31.028,-4.39,7.53,0.08
31.073,-5.37,8.55,-0.04
31.118,-4.98,8.08,-0.27
31.163,-4.86,8.63,-0.12
31.208,-5.06,8.83,-0.63
31.252,-4.9,9.02,-0.55
31.297,-4.63,8.98,-0.82
31.343,-4.43,10.08,-1.49
31.388,-4.31,9.49,-1.92318066
31.523,-2.2,2.71,3.33318199
31.874,-5.26,9.22,1.26
31.918,-4.94,8.94,1.22
31.962,-4.16,8.9,1.29
32.006,-4,8.59,1.22
32.049,-4.24,8.75,0.94
32.093,-3.73,8.9,0.9
32.137,-3.73,9.18,0.43
32.181,-3.53,9.3,0.27
32.225,-3.49,10.08,0.2
32.27,-3.53,9.65,-0.08
32.315,-3.26,10,3.06
32.36,-4.55,11.96,6.28
32.405,-8.36,12.32,5.81
32.448,-6.04,3.84,1.73
32.492,-4.82,6.71,2.24
32.536,-4.24,9.34,2.94
32.58,-4.51,7.92,2.9
32.623,-5.45,8.32,2.2
32.667,-6.16,7.02,0.71
32.711,-6.43,8.04,0.94
32.755,-5.18,8.87,1.33
32.798,-4.2,8.55,1.06
32.843,-5.02,7.61,-0.04
32.888,-5.77,8.24,-0.24
32.933,-5.57,8.36,-0.39
32.976,-5.02,8.63,0.04
33.021,-5.45,8.63,-0.35
33.066,-5.06,9.3,-0.78
33.111,-4.47,9.06,-1.33
33.156,-4.39,9.41,-1.73
33.2,-8.08,8.43,-0.27
33.246,-14.51,13.85,6.9
33.29,-4.12,6.24,4.2
33.334,-3.49,3.37,3.33
33.377,-7.61,8.55,3.18
33.421,-6.12,6.16,1.29
33.465,-5.33,7.77,1.57
33.509,-4.79,8.75,2.67
33.552,-4.08,7.85,2.55
33.596,-4.82,7.65,1.33
33.64,-5.53,8.32,1.53
33.684,-4.9,8.24,1.61
33.727,-4.82,8.9,1.96
33.771,-4.04,8.83,1.84
33.815,-4.04,8.75,1.41
33.859,-3.88,8.63,1.14
33.902,-3.84,8.98,1.06
33.946,-3.37,8.87,0.86
33.99,-3.41,8.79,1.06
34.034,-3.1,9.18,1.06
34.077,-3.57,9.96,1.06
34.121,-3.3,9.96,2.59
34.166,-4.59,11.14,2.59
34.211,-5.57,12.75,5.57
34.255,-6.28,5.88,3.02
34.298,-4.82,3.77,1.37
34.342,-5.84,9.14,3.41
34.386,-4.55,8.83,2
34.43,-4.63,9.53,3.26
34.473,-5.06,7.53,1.29
34.518,-5.22,6.67,-0.04
34.562,-6.04,8.63,1.18
34.606,-4.9,8.83,1.22
34.649,-4.24,9.06,0.47
34.694,-4.75,8.39,-0.12
34.739,-5.1,8.39,-0.39
34.784,-5.18,8.83,-0.24
34.828,-4.98,8.59,-0.04
34.873,-4.55,8.79,-0.35
34.918,-4.71,9.02,-0.71
34.963,-5.06,9.81,-1.1
35.008,-4.79,9.61,-1.61
35.052,-6.32,8.71,-1.88
35.098,-11.53,11.73,3.65
35.143,-8.79,12.08,6.43
35.187,-2.28,1.41,1.33
35.231,-6.67,8.32,3.45
35.274,-5.41,8.04,2.47
35.318,-6.2,7.41,1.77
35.362,-5.61,8.28,2.2
35.406,-5.02,8.94,1.88
35.449,-4.28,8.36,1.92
35.493,-4.63,7.77,1.53
35.537,-5.14,8.55,0.94
35.581,-4.71,8.87,1.73
35.624,-4.2,9.34,2
35.668,-3.61,9.1,1.53
35.712,-3.92,9.14,1.18
35.756,-3.8,8.59,0.98
35.799,-3.92,8.79,0.63
35.843,-3.26,8.9,0.82
35.887,-3.45,9.3,0.75
35.932,-3.53,10.04,0.86
35.976,-4.2,11.85,3.3
36.021,-5.02,10.47,4.12
36.066,-5.73,11.3,6
36.11,-6.39,5.53,1.84
36.153,-5.06,5.65,1.69
36.197,-5.26,8.63,2.67
36.241,-4.98,9.41,2.63
36.285,-5.73,8.59,2.63
36.328,-5.61,7.14,1.02
36.372,-5.1,6.94,0.2
36.416,-5.18,8.79,1.41
36.46,-4.82,9.1,1.41
36.503,-4.39,8.9,0.71
36.548,-4.51,8.12,-0.31
36.593,-4.75,8.36,-0.27
36.638,-4.94,8.63,-0.16
36.683,-4.75,8.87,-0.08
36.727,-4.79,9.49,-0.04
36.772,-4.55,9.18,-1.1
36.817,-4.59,9.45,-1.57
36.862,-7.14,9.06,-1.53
36.908,-10.63,11.73,2.51323584
37.346,-5.14,8.63,0.94
37.39,-4.71,8.79,1.37
37.434,-4.24,8.98,1.49
37.477,-4.47,8.98,1.22
37.521,-4.43,9.22,1.1
37.565,-3.77,9.02,0.94
37.609,-3.77,9.1,0.47
37.652,-2.9,9.06,0.31
37.696,-2.35,9.1,0.08
37.74,-2.59,9.57,0.2
37.784,-3.57,9.92,1.57
37.828,-4.75,13.38,3.49
37.873,-4.28,12.67,6.86
37.917,-6,6.86,2.59
37.961,-5.33,2.16,0.51
38.006,-7.06,10.51,2.28
38.049,-4.67,9.57,2.59
38.093,-4.75,8.55,2.75
38.137,-5.02,7.96,0.82
38.181,-5.02,6.63,0.31
38.224,-5.73,8.08,0.82
38.268,-5.45,8.98,1.22
38.312,-4.71,9.22,1.06
38.356,-4.86,7.65,0.35
38.399,-5.18,8.63,0
38.443,-5.1,8.43,0.2
38.487,-4.9,8.87,0.31
38.532,-4.79,9.06,-0.08
38.576,-5.14,8.87,-0.39
38.621,-5.1,9.02,-0.75
38.666,-5.06,9.49,-1.26
38.711,-4.9,8.79,-1.53
38.755,-8.04,9.77,0.27
38.8,-11.53,12.71,3.92
38.844,-6.55,7.49,4.39
38.888,-3.33,2.86,1.96
38.933,-7.22,11.38,4.12
38.976,-6.43,5.37,0.82
39.02,-6.16,7.92,1.92
39.064,-4.94,9.34,2.51
39.108,-3.96,8.51,2.08
39.151,-3.8,7.81,1.1
39.195,-5.14,8.39,1.14
39.239,-5.1,8.75,0.78
39.283,-4.71,8.94,1.33
39.326,-3.92,8.71,1.22
39.37,-4.55,9.06,1.02
39.414,-4.08,8.39,1.18
39.458,-3.84,9.1,0.75
39.501,-3.45,9.02,0.51
39.545,-3.49,9.73,0.39
39.59,-3.26,11.02,2.35
39.635,-4.82,11.45,4.86
39.68,-8.94,12.55,4.28
39.723,-6.75,0.94,0.43
39.767,-5.41,7.34,2.51
39.811,-4.16,7.65,2.47
39.855,-4.94,8.79,2.9
39.898,-5.92,8.08,2.51
39.942,-6.08,7.1,1.02
39.986,-5.88,7.88,1.41
40.03,-5.77,8.9,1.88
40.073,-5.49,8.12,0.08
40.117,-4.47,8.28,0.16
40.161,-5.3,8.24,0.12
40.206,-5.61,7.69,-0.59
40.25,-5.41,8.28,-0.12
40.294,-5.41,8.55,0.2
40.338,-5.14,9.02,0.2
40.383,-4.59,9.06,-0.04
40.427,-4.35,8.79,-0.35
40.472,-4.86,8.98,-1.18
40.517,-4.98,9.96,-1.45
40.562,-7.26,10.67,0
40.608,-10.94,12.16,3.02
40.651,-6.63,9.57,4.59
40.695,-1.88,1.88,1.41
40.739,-8,8.75,2.12
40.783,-6.24,8.04,2.28
40.826,-6.35,7.1,1.84
40.87,-5.57,8.12,2.24
40.914,-4.86,8.08,2.04
40.958,-4.47,7.96,1.77
41.001,-5.14,7.92,1.45
41.045,-5.53,8.36,1.37
41.089,-4.75,8.63,1.33
41.133,-4.2,8.59,1.69
41.176,-4.43,8.71,1.37
41.22,-4.39,9.18,1.26
41.264,-4.04,8.94,0.9
41.308,-3.45,9.26,0.67
41.351,-3.14,9.06,0.55
41.395,-3.3,9.61,0.63
41.439,-3.88,8.98,2.24
41.484,-4.71,11.77,4.12
41.528,-5.26,13.1,8.43
41.572,-7.77,6.51,1.84
41.616,-6.43,4.71,0.59
41.66,-5.88,8.43,2.31
41.703,-4.2,8.9,2.82
41.747,-4.71,7.85,2.71
41.791,-5.73,7.73,0.82
41.835,-5.92,7.53,0.71
41.878,-5.26,7.85,0.94
41.922,-4.98,8.67,1.33
41.966,-4.63,9.41,0.86
42.01,-4.71,8.55,0.16
42.053,-4.9,8.9,0.24
42.097,-4.98,8.59,0.08
42.142,-4.86,8.67,-0.08
42.187,-5.1,8.83,-0.47
42.232,-5.06,8.24,-0.86
42.276,-5.18,8.71,-1.37
42.321,-5.69,9.92,-1.77
42.366,-4.86,9.81,-1.49
42.411,-7.45,10.98,0.47329089
42.851,-5.26,8.59,1.14
42.895,-5.02,8.71,1.49
42.939,-4.35,9.22,1.57
42.983,-3.69,8.79,1.53
43.026,-3.8,8.87,1.22
43.07,-3.57,8.87,1.06
43.114,-3.45,8.83,0.86
43.158,-3.33,9.22,0.51
43.202,-2.98,10.4,0.98
43.246,-3.06,9.96,2.71
43.291,-5.26,11.53,5.1
43.336,-6.2,12.04,7.22
43.38,-8.24,5.18,1.49
43.423,-5.06,7.37,2.2
43.467,-4.9,9.06,2.24
43.511,-4.67,8.94,2.94
43.555,-5.18,7.57,1.8
43.598,-5.69,7.02,0.47
43.642,-5.53,7.65,0.98
43.686,-5.73,8.08,0.86
43.73,-5.3,8.9,1.1
43.773,-4.79,8.63,0.51
43.818,-5.02,8.32,-0.27
43.862,-5.37,8.59,0.08
43.906,-5.06,8.71,0.24
43.949,-4.9,9.3,0
43.994,-4.71,9.3,-0.35
44.039,-4.51,8.43,-1.02
44.084,-4.67,8.36,-1.45
44.128,-4.63,8.39,-1.84
44.173,-5.37,9.34,-1.57
44.219,-9.38,11.02,-0.04
44.265,-11.41,14.47,6.39
44.309,-1.57,4.28,0.47
44.352,-4.59,2.28,2.39
44.397,-7.14,11.3,4.16
44.441,-6.04,6.43,0.98
44.485,-5.92,7.26,1.37
44.528,-5.73,8.59,1.8
44.572,-4.79,8.24,1.73
44.616,-4.16,7.88,1.29
44.66,-5.22,8.2,1.18
44.703,-5.1,8.63,1.26
44.747,-4.98,9.89,1.65
44.791,-3.73,8.75,1.41
44.835,-3.73,8.83,1.29
44.878,-3.84,8.59,1.37
44.922,-3.69,9.22,0.98
44.966,-3.92,8.55,0.63
45.01,-3.61,8.71,0.59
45.053,-3.69,8.59,0.71
45.097,-3.92,9.38,0.67
45.141,-4.47,9.81,0.51
45.186,-4.16,10.32,3.18
45.231,-4.82,10.16,5.14
45.275,-8.43,11.77,5.73
45.319,-5.18,4,1.37
45.363,-4.51,5.73,1.49
45.408,-5.61,10,3.3
45.451,-4.59,8.94,2.47
45.495,-5.45,9.18,2.59
45.539,-5.14,6.83,1.37
45.583,-4.43,7.88,1.61
45.626,-4.98,8.36,1.57
45.67,-5.49,8.24,0.63
45.714,-5.49,8.75,0.86
45.758,-5.22,8,0.04
45.801,-5.69,8.36,0.2
45.845,-5.61,8.83,0.31
45.889,-5.1,9.06,0.08
45.934,-5.06,8.87,-0.08
45.978,-5.1,8.83,-0.39
46.023,-4.98,8.47,-0.94
46.068,-4.55,8.36,-0.78
46.113,-4.47,8.59,-1.02
46.158,-4.55,8.98,-1.26
46.202,-6.08,9.57,-1.57
46.247,-7.57,12.16,0.2
46.293,-11.3,13.42,5.26
46.337,-2.82,2.75,3.18
46.381,-5.49,5.02,1.88
46.424,-6.75,9.18,3.06
46.468,-6.67,5.96,0.9
46.512,-6.28,8,1.88
46.556,-4.9,8.71,1.92
46.599,-4.12,7.77,1.61
46.643,-4.94,8,1.41
46.687,-5.49,8.12,1.41
46.731,-5.45,8.71,1.45
46.774,-5.41,8.71,1.29
46.818,-4.47,8.9,1.41
46.862,-3.65,8.75,1.41
46.906,-4.2,8.9,1.18
46.949,-3.84,8.67,1.06
46.993,-3.41,8.59,1.41
47.037,-3.49,8.67,0.94
47.082,-3.8,10.75,0.94
47.125,-3.53,9.49,1.22
47.17,-4.9,10.43,4.35
47.215,-5.49,13.42,8.32
47.259,-8.32,5.69,2.28
47.302,-4.55,4.67,1.41
47.346,-3.96,8.9,3.02
47.39,-4.94,8.04,2.67
47.434,-5.49,7.77,2.55
47.477,-5.73,7.22,1.1
47.521,-5.69,7.69,1.26
47.565,-5.57,8.32,1.26
47.609,-5.33,8.47,1.22
47.652,-4.75,8.12,0.43
47.696,-5.65,8.55,0.12
47.74,-5.81,8.28,0.12
47.784,-5.45,8.59,0.12
47.827,-5.37,8.98,0.31
47.872,-5.33,8.9,-0.2
47.917,-5.22,8.51,-0.51334594
48.319,-5.73,5.33,2.24
48.363,-6.47,9.3,2.55
48.407,-6.24,6.98,1.96
48.45,-5.88,7.53,1.88
48.494,-5.02,8.59,2.16
48.538,-3.92,8.16,2.16
48.582,-3.8,8.08,2.16
48.625,-5.02,8.67,1.69
48.669,-4.82,8.98,1.92
48.713,-4.43,9.1,1.61
48.757,-3.53,8.59,1.61
48.8,-3.41,8.87,1.18
48.844,-3.26,8.55,1.26
48.888,-3.18,8.71,1.29
48.932,-3.41,9.22,1.1
48.975,-3.02,8.67,0.75
49.019,-3.53,9.53,0.75
49.063,-3.22,9.81,1.88
49.108,-5.22,10.83,4.63
49.152,-6.04,12.83,8.36
49.196,-9.38,5.53,0.94
49.24,-5.49,6.08,2.2
49.284,-4.2,8.36,2.82
49.327,-4.82,8,3.26
49.371,-5.57,7.65,2.39
49.415,-5.65,7.22,0.86
49.459,-6.08,7.26,1.1
49.502,-5.77,8,1.29
49.546,-5.22,8.08,1.29
49.59,-4.82,8.28,1.02
49.634,-5.41,8.43,0.55
49.677,-5.65,8.32,0.59
49.721,-5.61,8.47,0.39
49.765,-5.37,8.67,0.12
49.81,-5.49,8.51,-0.24
49.854,-5.41,8.36,-0.78
49.899,-5.18,8.04,-1.02
49.944,-5.37,8.16,-1.26
49.989,-5.96,8.94,-1.29
50.034,-5.06,9.38,-1.65
50.077,-8.67,9.02,0.12
50.123,-12,12.98,5.1
50.167,-4.9,7.73,3.61
50.211,-2.75,2.9,2.24
50.254,-6.35,7.81,2.51
50.298,-5.77,7.57,1.69
50.342,-5.53,8,2.47
50.386,-4.75,8,2.79
50.429,-4.67,8.94,2.55
50.473,-4.24,8.08,1.88337149
50.561,-5.14,8.75,1.57
50.604,-3.84,8.75,1.8
50.648,-3.45,9.02,1.96
50.692,-4.08,9.18,1.57
50.736,-3.65,9.1,1.37
50.779,-3.53,9.1,1.14
50.823,-3.1,8.87,1.1
50.867,-2.82,8.94,0.94
50.911,-2.75,9.3,0.51337586
50.999,-3.57,9.53,-0.04
51.043,-3.41,9.49,1.88
51.088,-5.41,13.14,3.61
51.133,-7.49,11.65,8.24
51.176,-8.12,5.73,2.12
51.22,-4.63,5.57,1.53
51.264,-4.51,9.61,2.63
51.308,-5.3,7.92,2.75
51.351,-5.02,7.73,2.16
51.395,-5.69,7.57,0.71
51.439,-5.69,7.85,1.02
51.483,-5.61,7.77,1.18
51.526,-5.26,7.92,0.43
51.57,-4.98,8.75,0.86
51.614,-5.61,8.43,0.2
51.658,-5.77,8.47,0.27
51.701,-5.41,8.94,0.59338378
51.791,-5.3,9.02,-0.12
51.836,-4.98,8.16,-0.86
51.881,-4.79,8.32,-0.94
51.925,-4.79,7.96,-1.26
51.97,-5.18,9.1,-1.57338647
52.06,-8.59,11.89,0
52.106,-10.12,13.42,4.71
52.149,-4,5.14,3.3
52.193,-4.98,3.96,2.67
52.237,-6.71,8.43,2.35
52.281,-5.26,7.45,2.04
52.324,-5.73,8.16,2.82
52.368,-4.98,8.47,2.51
52.412,-4.51,8.71,2.28
52.456,-4.71,8.24,1.77
52.499,-4.79,8.08,1.57
52.543,-4.75,8.71,2.24
52.587,-4.24,8.83,2.51
52.631,-4.24,8.9,2.08
52.674,-4.2,8.9,1.65
52.718,-3.8,9.02,1.57
52.762,-3.73,8.79,1.53339438
52.981,-3.14,8.98,0.94
53.024,-3.45,9.3,0.713397
53.113,-3.73,10.28,0.59
53.158,-4.59,11.06,3.65
53.202,-6,11.49,7.18
53.246,-8.59,8.71,4
53.29,-5.45,3.49,0.59
53.334,-4.55,8.39,2.82
53.377,-5.02,9.45,2.98
53.421,-6,9.18,2.71340097
53.64,-4.35,8.51,0.39340316
53.863,-5.65,8.47,-0.67
53.908,-5.49,8.71,-1.1
53.952,-5.14,8.87,-1.53
53.997,-3.69,9.41,-1.33
54.042,-3.8,8.79,-2.47
54.088,-10.36,10.63,0.43
54.134,-11.3,15.77,8.79
54.177,-2.51,2.55,2.63
54.221,-6.2,5.14,3.22
54.265,-6.2,7.61,1.96
54.309,-6.43,6.94,1.61
54.352,-4.75,7.81,2.12
54.396,-4.28,8.9,2.67
54.44,-4.24,7.69,2.12
54.484,-5.22,8.08,1.73
54.527,-5.69,8.9,1.57
54.571,-4.16,8.71,2.16
54.615,-4.12,8.94,1.84
54.659,-4.28,9.02,1.8
54.702,-4.31,8.75,1.49
54.746,-3.53,8.59,1.65
54.79,-3.65,8.87,1.22
54.834,-3.49,9.06,1.29
54.877,-3.26,8.94,1.26
54.921,-3.26,8.94,1.06
54.965,-3.1,8.98,0.78
55.009,-3.22,9.41,0.9
55.052,-3.57,9.85,0.24
55.097,-3.14,10.9,3.33
55.142,-4.94,10.4,4.63
55.187,-8.79,14.08,6.12
55.231,-6.59,3.41,1.8
55.274,-4.67,4.35,0.9
55.319,-5.45,10.16,2.79
55.363,-5.3,9.53,2.94
55.407,-5.22,8.59,2.24
55.45,-5.45,6.98,0.59
55.494,-5.18,7.49,0.63
55.538,-5.02,8.63,1.22
55.582,-5.41,8.32,0.63
55.625,-4.98,8.55,0.35
55.67,-5.26,8.12,-0.27
55.714,-5.45,8.67,0
55.758,-5.49,8.71,0.04
55.801,-5.57,8.9,0.2
55.846,-5.18,8.98,-0.04
55.891,-4.9,8.24,-1.06
55.936,-4.82,8.9,-0.94
55.981,-4.79,8.51,-1.14
56.025,-4.79,9.02,-1.61
56.07,-4.98,9.1,-1.92
56.115,-8.39,11.89,0
56.161,-10.36,14.24,5.65
56.204,-3.3,3.92,1.77
56.248,-5.37,5.02,2.98
56.292,-6.35,8.87,2.63
56.336,-5.61,7.73,2.12
56.379,-5.1,8.55,2.31
56.423,-4.28,8.08,2.2
56.467,-4.39,8.36,2.12
56.511,-4.2,8.12,1.57
56.554,-4.51,8.55,1.73
56.598,-4.71,9.18,1.33
56.642,-4.2,9.18,1.73
56.686,-4.04,9.02,1.84
56.729,-4.08,9.14,1.61
56.773,-3.57,9.06,1.22
56.817,-3.61,8.2,1.1
56.861,-3.69,8.94,1.22
56.904,-3.65,9.18,1.45
56.948,-3.77,8.98,1.29
56.992,-3.49,9.18,1.29
57.036,-3.33,9.02,1.22
57.079,-3.53,9.49,1.26
57.123,-3.84,9.81,0.94
57.168,-3.3,10.75,3.8
57.212,-4.82,9.34,4.82
57.257,-7.77,12,6.12
57.3,-6.12,4.67,1.41
57.344,-5.69,6.83,2.2
57.388,-5.65,9.41,3.49
57.432,-4.94,8.79,3.3
57.475,-6,8.28,2.63
57.519,-6,6.75,1.26
57.563,-5.37,7.37,1.26
57.607,-5.84,7.77,1.33
57.65,-6.24,8.75,0.39
57.694,-4.98,8.08,0.78
57.738,-5.53,7.57,0.08
57.783,-6.2,8.16,-0.08
57.826,-6.08,8.43,0.27
57.87,-5.77,8.51,0.51
57.915,-5.65,8.36,-0.04
57.96,-5.49,8.87,-0.16
58.004,-5.69,8.39,-0.67
58.049,-5.61,7.96,-0.55
58.094,-5.61,8.08,-0.71
58.139,-5.41,8.12,-0.59
58.184,-5.65,8.43,-1.22
58.228,-5.14,8.83,-1.14
58.273,-4.67,9.34,-1.29
58.317,-8.63,9.06,0.04
58.363,-10.55,12,3.8
58.407,-6.75,9.1,6.98
58.45,-2.71,2.55,1.84
58.494,-8.12,8.83,2.63
58.538,-6.12,7.06,1.69
58.582,-6.35,7.3,1.92
58.625,-5.41,8.04,2.31
58.669,-4.47,8.16,2.12
58.713,-4,8.39,1.92
58.757,-4.12,7.85,1.69
58.8,-5.14,8.39,1.61
58.844,-4.82,9.26,1.49
58.888,-3.96,8.94,2.24345564
59.282,-3.41,9.92,0.78345958
59.371,-4.39,10.28,3.69
59.416,-5.69,11.96,5.61
59.46,-8.87,7.3,2.08
59.503,-6.71,5.92,1.73
59.547,-4.71,7.14,2.59
59.591,-4.94,9.18,3.37
59.635,-5.41,8,2.35
59.678,-5.57,7.22,1.29
59.722,-5.57,7.81,1.06
59.766,-5.81,8.24,0.94
