NAME:,walk_3_1.csv,,
EXPERIMENT TIME:,24/05/2022 19:00,,
ACTIVITY TYPE:,Walking,,
COUNT OF ACTUAL STEPS,100,,
,,,
Time [sec],ACC X,ACC Y,ACC Z
279.25,-9.26,3.02,1.61
279.29,-9.34,2.39,1.49
279.33,-9.22,3.02,1.49
279.38,-9.3,3.26,1.45
279.42,-9.06,2.51,1.18
279.46,-9.38,3.02,1.1
279.5,-9.41,2.86,0.98
279.54,-9.49,3.06,0.75
279.59,-9.41,2.98,0.86
279.63,-9.89,3.02,0.67
279.67,-9.65,3.14,0.35
279.71,-9.85,2.94,-0.24
279.75,-9.41,2.16,-0.35
279.8,-10.04,1.06,-0.71
279.84,-10.4,2.67,-1.26
279.88,-10.36,2.47,-0.82
279.92,-9.06,2.94,-0.27
279.96,-9.22,2.12,-0.59
280.01,-10.43,1.65,-1.57
280.05,-10.36,1.61,-1.69
280.09,-9.22,2,-1.22
280.13,-9.41,2.24,-1.49
280.17,-8.51,1.96,-1.41
280.22,-7.69,1.69,-0.9
280.26,-8.67,1.65,-2
280.3,-9.18,2.16,-1.65
280.34,-9.26,1.84,-1.49
280.38,-9.41,2.51,-1.88
280.43,-8.39,2.31,-1.88
280.47,-6.71,2.9,-2.16
280.51,-12.63,6.75,0.59
280.55,-20.01,6.24,-1.41
280.59,-4.94,0.2,0.9
280.64,-5.92,0.24,2.79
280.68,-13.93,3.96,8.04
280.72,-5.41,3.26,3.41
280.76,-6.35,5.84,4.12
280.8,-8.2,2.12,-0.24
280.85,-10.43,0.35,0.2
280.89,-11.22,-0.75,-0.86
280.93,-9.49,-0.9,-0.82
280.97,-8.55,1.33,0.67
281.01,-8.2,2.43,1.73
281.06,-9.65,1.88,1.53
281.1,-8.75,1.26,-2.28
281.14,-13.22,-0.98,-3.49
281.18,-17.73,0.31,-3.33
281.22,-13.3,4.98,8.2
281.27,-20.01,13.85,8.16
281.31,-8.67,4.31,1.77
281.35,-8.12,0.9,-0.35
281.39,-7.96,2,-0.43
281.43,-6.28,2.04,0.08
281.48,-3.92,2.86,1.53
281.52,-3.8,2.39,1.02
281.56,-6.12,1.29,-1.88
281.6,-9.69,1.69,-2.98
281.64,-9.81,2.51,-3.57
281.69,-11.34,1.96,-3.18
281.73,-9.92,-1.57,-1.22
281.77,-20.01,16.04,8.63
281.81,-13.26,3.26,4.12
281.85,-4.82,0.47,1.84
281.9,-12.59,3.57,5.92
281.94,-8,3.02,4.39
281.98,-5.84,6.86,1.69
282.02,-10.83,1.33,-1.22
282.06,-10.67,-0.47,-1.18
282.11,-8.12,-0.51,-2.51
282.15,-10.2,0.9,-0.78
282.19,-7.22,0.67,-0.2
282.23,-8.08,0.82,0.27
282.27,-10.63,2.08,-2.04
282.32,-12.75,-0.43,-0.86
282.36,-15.69,-0.98,1.22
282.4,-14.32,7.57,3.77
282.44,-16.2,8.43,7.65
282.48,-11.57,5.3,2.12
282.53,-9.69,2.24,0.63
282.57,-9.53,1.02,-0.98
282.61,-7.53,0,-1.73
282.65,-2.82,1.45,-0.51
282.69,-3.96,0.98,0.24
282.74,-4.59,0.98,-0.43
282.78,-7.92,2.67,-0.24
282.82,-12.91,4.67,-2.59
282.86,-15.93,-1.06,-8.04
282.9,-12.67,-0.98,-1.41
282.95,-15.49,5.41,-0.27
282.99,-5.92,3.14,2.71
283.03,-11.02,3.61,5.96
283.07,-8.87,3.41,5.61
283.11,-4.51,4.86,0.47
283.16,-7.92,3.33,-0.39
283.2,-8.32,2.08,0.47
283.24,-9.92,0.12,-1.26
283.28,-10.94,1.61,-2.12
283.32,-9.3,0.71,0.82
283.37,-8.59,0.55,1.77
283.41,-10.9,1.14,-0.47
283.45,-10.32,-0.08,-3.33
283.49,-13.38,-3.1,-0.75
283.53,-10.63,7.69,4.04
283.58,-16.24,9.81,4.67
283.62,-16.59,11.22,4.86
283.66,-11.65,1.57,1.57
283.7,-10.24,0.98,-1.73
283.74,-9.38,-0.27,-2.47
283.79,-5.02,1.33,-0.78
283.83,-0.27,-0.04,0.08
283.87,-0.43,-0.27,0.59
283.91,-3.88,2,1.84
283.95,-5.49,3.45,-0.08
284,-14.24,6.63,-0.98
284.04,-19.22,3.3,-7.61
284.08,-12.75,1.73,0.82
284.12,-20.01,6,4.55
284.16,-2.86,-1.14,3.3
284.21,-5.1,0.27,5.22
284.25,-15.34,1.92,7.81
284.29,-1.45,10.2,-4
284.33,-9.49,5.02,-1.77
284.37,-9.45,1.49,-0.27
284.42,-7.77,-0.47,0.82
284.46,-7.1,1.29,-0.39
284.5,-10.83,2.55,1.1
284.54,-8.51,1.41,-0.27
284.58,-9.06,0,1.33
284.63,-8.39,2.51,-1.06
284.67,-13.53,-1.18,-0.75
284.71,-17.1,-2.16,-0.43
284.75,-15.93,7.26,6.16
284.79,-16.99,9.96,7.3
284.84,-10.9,8.47,4.59
284.88,-7.61,2.28,0.94
284.92,-8.63,1.14,-0.59
284.96,-8.12,-1.37,-2.35
285,-4.24,1.96,-0.12
285.05,-0.82,2.59,2.43
285.09,-1.33,3.02,0.94
285.13,-7.53,2.55,-1.53
285.17,-11.41,2.12,-3.77
285.21,-15.69,2.75,-5.18
285.26,-12.91,-0.39,-1.73
285.3,-20.01,14.28,19.26
285.34,-6.63,-0.16,6.79
285.38,-5.73,2.16,6.2
285.42,-10.08,2.86,8.12
285.47,-10.98,2.12,1.61
285.51,-9.06,5.88,1.06
285.55,-10.51,1.53,-0.9
285.59,-10.4,-0.31,-0.2
285.63,-8.83,-0.04,-1.26
285.67,-7.88,0.75,-0.86
285.72,-10,1.73,0.78
285.76,-7.88,1.57,1.06
285.8,-10,-0.12,-1.61
285.84,-11.85,0.43,-5.22
285.89,-18.24,-1.33,1.41
285.93,-15.26,9.41,6.86
285.97,-14.71,12.12,7.02
286.01,-8.94,3.49,2.24
286.05,-7.65,0.82,-0.55
286.09,-8.04,1.33,-0.43
286.14,-5.33,2.08,-0.94
286.18,-1.69,2.75,0.63
286.22,-0.16,1.57,0.39
286.26,-6.55,0.75,-1.61
286.3,-11.26,1.49,-2.47
286.35,-14.67,3.45,-6.55
286.39,-15.18,-3.65,-3.14
286.43,-20.01,3.26,20.01
286.47,-10.4,4.67,6.98
286.51,-4.75,1.69,5.96
286.56,-11.81,5.33,9.49
286.6,-8.08,3.61,4.04
286.64,-7.69,6.04,2.71
286.68,-10.9,2.31,-1.18
286.72,-11.41,0.51,-1.14
286.77,-6.98,-0.82,-0.9
286.81,-10.94,0.39,0.51
286.85,-6.63,0.82,-2.16
286.89,-11.81,0.47,1.53
286.93,-6.83,2.51,0.27
286.98,-11.89,-0.08,0.94
287.02,-19.73,-0.82,-3.18
287.06,-11.77,2.59,5.57
287.1,-20.01,10.51,6.28
287.14,-13.77,13.49,7.3
287.19,-8.28,1.26,0.08
287.23,-8.08,1.02,-1.33
287.27,-7.49,0.24,-1.14
287.31,-4.2,1.73,0.75
287.35,0.82,2.9,1.84
287.39,-0.27,2.67,-0.12
287.44,-8.47,1.22,-1.53
287.48,-14.63,3.02,-3.8
287.52,-16.67,1.33,-5.41
287.56,-15.85,-0.71,-4.98
287.6,-6.51,-0.82,-2.24
287.65,-20.01,9.38,9.41
287.69,-5.26,1.69,5.77
287.73,-6.98,2.2,4.79
287.77,-9.92,4.16,9.69
287.81,-1.29,9.34,-1.37
287.86,-8.32,3.33,1.49
287.9,-10.83,1.41,0.75
287.94,-10.63,-1.18,-1.61
287.98,-9.65,-0.47,-2.24
288.02,-10,-0.47,-0.2
288.07,-8.2,1.06,0.47
288.11,-8.36,2.04,2.63
288.15,-9.57,1.8,-2.43
288.19,-12.2,-2.63,-0.78
288.23,-11.65,5.3,2.47
288.28,-18.36,10.47,7.06
288.32,-13.77,11.26,7.18
288.36,-7.96,3.06,1.77
288.4,-6.9,0.63,-1.14
288.44,-8.59,-0.04,-1.1
288.49,-7.18,1.1,-0.78
288.53,-1.73,2.43,1.06
288.57,-3.77,3.41,0.63
288.61,-9.53,2.51,-1.06
288.65,-10.63,1.88,-3.45
288.7,-11.38,1.73,-4.04
288.74,-12.47,-1.45,-2.16
288.78,-7.26,4.98,-5.45
288.82,-20.01,9.1,11.14
288.86,-0.59,2.08,2.71
288.91,-9.81,3.22,4.86
288.95,-14.16,3.69,9.1
288.99,-4.39,6.35,-1.02
289.03,-7.73,4.16,-1.22
289.07,-10.87,-0.27,0.98
289.12,-8.71,-0.08,-1.49
289.16,-9.61,1.84,1.26
289.2,-8.28,2.39,-0.08
289.24,-11.34,0.04,1.14
289.28,-8.12,0.55,0.24
289.33,-10,0.24,-0.12
289.37,-13.14,4.75,-6.47
289.41,-12.67,-2,0.08
289.45,-16.87,7.1,5.73
289.49,-19.81,13.61,9.02
289.54,-9.96,5.41,4.2
289.58,-8,-0.39,-0.59
289.62,-9.77,1.73,-1.33
289.66,-8.98,0.16,-2.82
289.7,-4.75,2.55,1.57
289.75,-0.39,2.51,1.57
289.79,-0.78,1.18,0.24
289.83,-4.12,2.12,-0.71
289.87,-13.53,3.8,-0.2
289.91,-19.34,1.18,-4.63
289.96,-20.01,5.3,-3.22
290,-11.02,7.92,-2.35
290.04,-5.49,2.2,2.86
290.08,-11.22,4.94,6.67
290.12,-7.14,3.06,4.86
290.17,-5.65,4.82,0
290.21,-9.02,5.33,0.31
290.25,-9.77,3.1,0.86
290.29,-9.22,-0.24,0.04
290.33,-8.75,0.71,-1.02
290.38,-10.36,2.2,1.29
290.42,-7.61,2.75,1.22
290.46,-8.47,2.55,1.26
290.5,-9.14,0.08,0.31
290.54,-11.53,-2.12,-1.57
290.58,-18.2,1.69,-5.22
290.63,-14.16,4.79,6.71
290.67,-18.99,11.73,7.14
290.71,-11.85,11.18,7.06
290.75,-7.92,1.29,1.61
290.79,-7.92,0.98,-0.9
290.84,-9.49,-0.35,-2.16
290.88,-4.75,2.67,1.22
290.92,0.31,1.77,0.94
290.96,-0.08,1.88,-0.71
291,-6.2,3.33,-1.37
291.05,-13.77,4.12,-2.82
291.09,-16.55,3.3,-5.33
291.13,-13.02,-0.55,-1.65
291.17,-18.79,11.57,6.86
291.21,-9.61,8.24,-2.24
291.26,-3.1,-0.2,3.92
291.3,-12.36,4.24,7.02
291.34,-8.98,4.04,5.61
291.38,-4.04,7.14,0.82
291.42,-7.77,4.24,1.06
291.47,-11.06,1.26,-0.24
291.51,-9.14,-0.98,-1.37
291.55,-9.81,0.12,-0.86
291.59,-9.34,2.24,1.53
291.63,-8.87,2.63,1.61
291.68,-9.1,1.26,1.57
291.72,-9.61,0.86,-0.35
291.76,-12.59,-0.12,-2.43
291.8,-15.18,0.16,-3.14
291.84,-11.73,2.67,6.04
291.89,-20.01,13.57,9.26
291.93,-11.02,9.69,4.98
291.97,-7.02,0.59,-0.9
292.01,-8,1.88,-0.71
292.05,-7.92,-0.2,-1.8
292.1,-5.69,2.2,-0.12
292.14,-1.8,3.06,1.53
292.18,-2.82,2.98,1.45
292.22,-5.49,2.75,0.27
292.26,-10.55,5.06,-1.61
292.31,-15.73,1.57,-2.55
292.35,-16.91,-0.43,-4.39
292.39,-8.75,2.75,-3.8
292.43,-20.01,8.71,16.48
292.47,-5.88,2.94,4.86
292.52,-6.47,2.43,5.1
292.56,-7.18,3.14,6.75
292.6,-5.65,3.3,1.26
292.64,-8.43,4.24,0.71
292.68,-12.83,1.22,0.12
292.73,-9.73,-0.12,0.67
292.77,-9.41,-0.35,-1.45
292.81,-8.98,-0.82,1.65
292.85,-9.69,3.02,0.63
292.89,-9.57,1.22,2.63
292.94,-9.77,-0.39,-0.63
292.98,-13.42,1.49,-5.14
293.02,-14.36,-2.94,-0.78
293.06,-14.28,5.37,5.69
293.1,-20.01,10.43,7.85
293.15,-12.04,9.18,3.96
293.19,-8.98,1.45,1.1
293.23,-7.37,2.2,0.2
293.27,-7.69,-0.35,-0.67
293.31,-3.84,1.88,0.9
293.36,-0.04,3.1,1.14
293.4,-2.98,2.47,-0.51
293.44,-8.87,2.12,-2.55
293.48,-19.53,4.9,-5.45
293.52,-13.61,2.67,-3.69
293.57,-4.12,5.53,-2.31
293.61,-20.01,8.39,11.69
293.65,-5.26,1.92,3.8
293.69,-7.45,3.14,4
293.73,-8.67,3.06,6.86
293.78,-7.77,7.3,2
293.82,-9.85,2.12,-1.57
293.86,-9.61,0.78,-0.39
293.9,-9.41,-1.65,-0.86
293.94,-8.67,0.9,0.16
293.99,-8.04,2.63,0.86
294.03,-9.14,2,2.67
294.07,-8.67,0.78,1.14
294.11,-10.55,1.14,0.51
294.15,-12.94,0.35,-2.67
294.2,-14.83,-3.02,-2.59
294.24,-11.92,4.43,4.16
294.28,-18.75,11.34,5.65
294.32,-14.2,13.06,8.36
294.36,-7.69,2.94,3.06
294.41,-5.41,0.12,-0.59
294.45,-8.67,0.2,-0.55
294.49,-5.53,1.26,-0.31
294.53,-1.29,2.71,1.88
294.57,-0.39,2.98,1.02
294.62,-3.57,3.33,-0.16
294.66,-20.01,5.77,0.31
294.7,-18.67,-0.12,-4.98
294.74,-4.08,8.08,-8.83
294.78,-20.01,7.41,8.9
294.83,-7.14,2.71,4.67
294.87,-5.45,2.47,4.16
294.91,-8.47,3.45,9.45
294.95,-3.06,6.2,-0.86
294.99,-7.81,4.67,0.27
295.04,-11.1,-1.53,0.75
295.08,-10.04,-0.55,1.26
295.12,-10.55,-0.31,-0.47
295.16,-10.2,0.47,1.92
295.2,-8.28,1.33,1.77
295.25,-9.18,2.63,2.59
295.29,-10.04,0.27,0.51
295.33,-13.22,-2.47,-1.61
295.37,-15.1,1.69,-4.43
295.41,-15.02,6.79,6.59
295.46,-16.16,10.43,5.49
295.5,-10.83,8.9,4.63
295.54,-9.06,1.49,0.86
295.58,-6.94,1.45,-0.43
295.62,-7.06,0.04,-1.1
295.67,-4.86,1.45,0.24
295.71,-1.29,2.47,1.29
295.75,0.08,2.28,0.47
295.79,-7.88,3.37,-3.02
295.83,-20.01,5.49,-3.61
295.88,-17.34,-0.67,-6.32
295.92,-4.63,8.9,-1.88
295.96,-19.34,7.61,-0.08
296,-3.3,2.16,2.31
296.04,-9.06,3.37,5.81
296.09,-7.53,2.9,5.61
296.13,-7.77,4.82,2.59
296.17,-8.28,2.08,-0.9
296.21,-11.3,1.69,-0.35
296.25,-9.92,-0.9,-1.22
296.3,-10.04,-0.16,-0.2
296.34,-8.75,0.43,0.16
296.38,-8.04,1.69,1.65
296.42,-7.57,2.04,3.41
296.46,-10.47,3.26,1.73
296.51,-13.02,-2.24,0
296.55,-14.71,0.47,-4.94
296.59,-13.06,9.26,2.51
296.63,-12.28,6.67,9.92
296.67,-10.55,12.47,7.06
296.72,-7.61,2.12,2.16
296.76,-6.63,-0.35,-1.96
296.8,-8.75,1.26,-1.61
296.84,-5.22,1.84,-0.51
296.88,-2.31,2.55,2.63
296.93,-0.16,3.92,2.28
296.97,-7.81,3.77,-1.06
297.01,-19.42,3.06,-2.67
297.05,-19.97,-1.18,-6.55
297.09,-7.1,1.02,-2.86
297.14,-16.44,12.12,8.28
297.18,-7.22,2.2,4.86
297.22,-8.08,3.1,6.12
297.26,-6.12,3.41,6.63
297.3,-5.41,6.67,3.22
297.35,-7.85,3.18,1.57
297.39,-10.32,1.8,0.9
297.43,-10.2,-1.06,-0.9
297.47,-10.04,0.63,0.27
297.51,-8.9,1.02,0.04
297.56,-9.49,2,1.02
297.6,-9.14,2.16,2.24
297.64,-9.14,1.41,2.24
297.68,-12.51,-0.39,-0.24
297.72,-13.45,-0.59,-2.9
297.77,-12.67,3.18,6.32
297.81,-16.36,12.4,3.57
297.85,-16.36,12.24,9.53
297.89,-9.02,2.86,2.71
297.93,-6.2,-0.2,-1.18
297.98,-8.63,2,-0.16
298.02,-6.9,0,-1.41
298.06,-3.57,2.63,1.22
298.1,-0.75,2.86,0.59
298.14,-4.67,3.18,-1.02
298.19,-16.36,4.75,-3.8
298.23,-16.48,-0.63,-4
298.27,-8.04,-2.04,-3.45
298.31,-3.3,9.38,-3.57
298.35,-20.01,7.88,2.51
298.4,-4.28,2.31,1.73
298.44,-10.28,3.41,4
298.48,-6.9,3.37,5.41
298.52,-4.55,5.77,3.33
298.56,-7.3,1.84,1.96
298.61,-8.16,1.33,1.57
298.65,-12.04,0.47,-0.04
298.69,-12.24,0.71,-2.2
298.73,-8.9,-0.82,0.67
298.77,-7.81,1.77,3.65
298.82,-10.43,5.02,1.61
298.86,-8.59,-0.35,1.77
298.9,-10.16,0.78,-0.63
298.94,-13.53,-2.55,0.86
298.98,-15.22,4.43,-5.37
299.03,-13.53,2.94,8.9
299.07,-17.38,10.04,8.87
299.11,-9.77,7.06,1.57
299.15,-9.41,2.08,2
299.19,-6.55,1.26,0.51
299.24,-6.47,0.12,0.27
299.28,-2.98,2.79,1.73
299.32,-1.1,2.82,1.18
299.36,-4.86,3.33,-1.02
299.4,-13.73,2.43,-2.51
299.45,-12.24,1.77,-4.43
299.49,-14.47,0.16,-5.18
299.53,-6.51,0,-2.9
299.57,-2.16,3.84,-6.32
299.61,-20.01,7.14,17.85
299.66,-7.53,3.45,0.47
299.7,-7.49,2.08,4.86
299.74,-10.12,4.51,7.22
299.78,-5.84,3.96,3.73
299.82,-8.9,2.9,1.06
299.87,-9.65,1.14,0.08
299.91,-10.4,-0.2,-1.53
299.95,-9.41,0.86,-0.47
299.99,-7.73,0.55,0.78
300.03,-9.18,0.24,1.06
300.08,-8.47,0.82,-0.55
300.12,-9.26,2.63,-0.51
300.16,-9.06,1.02,-0.98
300.2,-17.38,-3.18,5.3
300.24,-14.36,9.06,5.1
300.29,-14.04,6.63,3.96
300.33,-14.08,7.81,3.22
300.37,-9.69,5.18,3.73
300.41,-6.55,2.67,0.9
300.45,-7.69,-0.04,-0.04
300.5,-5.96,-0.47,-1.33
300.54,-3.1,2.47,-1.06
300.58,-4.55,2.71,0.39
300.62,-6.51,3.22,-0.47
300.66,-9.49,2.79,-1.45
300.71,-14.28,4.67,-3.77
300.75,-13.06,-2.16,-3.57
300.79,-7.41,4.39,-3.96
300.83,-20.01,9.96,5.41
300.87,-2.94,0.63,3.49
300.92,-8.98,3.8,4.94
300.96,-11.1,4.12,7.96
301,-5.92,6,1.61
301.04,-9.69,3.26,0.55
301.08,-10.47,0.24,0.31
301.13,-9.1,-0.27,-2.04
301.17,-10.32,0.9,-0.55
301.21,-6.83,1.29,0.82
301.25,-7.69,1.22,1.88
301.29,-9.1,1.73,0.59
301.34,-10,1.49,1.29
301.38,-10.08,-0.39,-0.86
301.42,-16.83,2.28,-2.28
301.46,-10.08,7.34,7.14
301.5,-13.22,8.94,4.71
301.55,-10.71,3.69,0.86
301.59,-14.32,6.75,2.51
301.63,-8.75,2.86,0.59
301.67,-8.71,2.35,0.78
301.71,-6.28,1.92,0.31
301.76,-3.57,2.08,0.59
301.8,-1.1,2.55,0.24
301.84,-3.3,2.82,0.27
301.88,-10.4,4.12,-1.92
301.92,-14.2,2.12,-5.06
301.97,-12.67,1.49,-6.71
302.01,-8.9,-0.16,-1.69
302.05,-20.01,5.02,18.12
302.09,-3.33,3.73,3.53
302.13,-8.55,3.8,6.86
302.18,-9.85,4.12,6.43
302.22,-6.08,6.47,2.59
302.26,-9.41,4.04,0.63
302.3,-9.65,2.04,0.12
302.34,-9.1,-0.59,-0.43
302.39,-9.89,0.82,-0.9
302.43,-9.34,1.65,-0.47
302.47,-9.34,0.31,1.41
302.51,-6.39,0.71,-0.16
302.55,-10.83,2.75,1.69
302.6,-8.75,4.16,-2.12
302.64,-14,-2.28,1.84
302.68,-11.38,4.2,4.86
302.72,-15.3,11.22,5.92
302.76,-13.77,11.1,7.02
302.81,-8.83,2.08,2.28
302.85,-9.81,1.61,-0.98
302.89,-10.63,0.31,-2.08
302.93,-6.75,2.47,-0.04
302.97,-2.94,2.55,2.71
303.02,-1.14,3.06,1.84
303.06,-6.04,2.39,-0.35
303.1,-13.69,3.1,-2.94
303.14,-13.18,-0.04,-5.1
303.18,-9.73,0.24,-2.51
303.23,-11.77,7.77,-2.47
303.27,-15.97,12.83,2.12
303.31,-4.98,3.26,4.59
303.35,-9.85,3.84,6.35
303.39,-8.71,4.28,6.51
303.44,-6.12,5.26,1.69
303.48,-9.53,3.45,0.04
303.52,-10.12,1.02,-0.04
303.56,-10.36,-0.35,-1.45
303.6,-8.79,1.73,0.04
303.65,-9.61,1.02,1.1
303.69,-8.2,0.43,0.82
303.73,-8.59,1.26,2.24
303.77,-9.26,4.2,0.98
303.81,-10.2,1.33,0.67
303.86,-10.4,0.51,-4.12
303.9,-9.89,0.27,1.84
303.94,-15.69,11.85,7.22
303.98,-15.14,7.61,4.79
304.02,-11.34,8.43,3.96
304.07,-7.92,2.63,0.71
304.11,-7.65,2.75,0.04
304.15,-6.83,1.22,0.39
304.19,-3.26,1.69,1.29
304.23,-0.39,2.43,1.06
304.28,-2.39,2.86,-0.43
304.32,-13.22,5.41,-3.33
304.36,-17.38,1.88,-5.45
304.4,-10.36,0.35,-3.77
304.44,-4.63,6.75,-5.06
304.49,-18.55,7.45,3.02
304.53,-2.12,3.18,1.18
304.57,-9.73,3.14,5.22
304.61,-10,3.61,6.79
304.65,-4.82,7.61,1.92
304.7,-9.26,3.77,0.2
304.74,-10.43,1.8,0.67
304.78,-8.9,-0.67,-1.73
304.82,-9.92,-0.16,-1.02
304.86,-9.53,1.53,0.47
304.91,-8.9,1.41,0.78
304.95,-8.32,1.49,1.45
304.99,-8.94,1.8,0.55
305.03,-10.28,2.31,-2.71
305.07,-14.71,-5.65,4.04
305.12,-12.04,11.14,5.96
305.16,-14.4,8.36,4.35
305.2,-15.65,8.12,3.88
305.24,-9.06,5.96,4
305.28,-6,1.65,-0.55
305.33,-8.39,1.22,0.04
305.37,-7.26,-0.63,-1.1
305.41,-1.57,2.55,0.47
305.45,-0.31,3.22,2.04
305.49,-3.41,3.57,-0.16
305.54,-12.79,4.51,-2.12
305.58,-20.01,2,-6.16
305.62,-12.36,-3.65,-0.12
305.66,-0.2,11.41,-8
305.7,-20.01,8.36,6.51
305.75,-5.65,5.26,6.47
305.79,-5.69,4.9,6.16
305.83,-5.84,5.26,5.37
305.87,-9.3,4.2,3.88
305.91,-10.2,0.16,-0.04
305.96,-11.22,-0.75,-1.8
306,-10.16,-0.35,0.08
306.04,-10.12,0.24,0.86
306.08,-7.85,2,0.43
306.12,-8.83,1.29,3.18
306.17,-9.85,1.73,0.59
306.21,-11.06,-0.08,0.43
306.25,-11.02,2.63,-4.16
306.29,-12.28,-1.18,2.71
306.33,-13.65,6.94,4.2
306.38,-18.32,7.3,4.9
306.42,-14.67,8.83,4.63
306.46,-8.08,4.24,2.94
306.5,-4.82,2.47,-0.71
306.54,-7.49,-0.24,0.2
306.59,-3.69,0.98,1.06
306.63,-1.77,2.51,1.22
306.67,-2.35,3.73,0.39
306.71,-5.53,4,-2.16
306.75,-17.18,5.3,-4.04
306.8,-14.2,-0.12,-3.18
306.84,-4.24,4,-5.84
306.88,-20.01,7.41,4.24
306.92,-4.35,3.69,2
306.96,-7.53,2.9,4.35
307.01,-11.22,2.86,5.73
307.05,-7.88,6.28,2.04
307.09,-9.41,2.47,-1.92
307.13,-9.53,2.39,-0.31
307.17,-8.28,0.59,0.59
307.22,-8.24,1.26,0.16
307.26,-9.06,1.33,-0.04
307.3,-8.08,1.18,-0.55
307.34,-9.53,1.06,1.61
307.38,-10.59,2,-1.18
307.43,-10.79,0.31,-1.69
307.47,-13.81,-4.08,2.51
307.51,-14.98,6.94,4.16
307.55,-17.73,8.75,5.45
307.59,-13.3,8.75,3.84
307.64,-8.71,4.39,1.69
307.68,-7.57,2.9,-0.04
307.72,-7.96,0,-0.47
307.76,-4.79,1.77,1.69
307.8,-2.12,3.18,2.2
307.85,-1.88,2.9,0.75
307.89,-6.28,3.14,-2.24
307.93,-15.06,3.02,-4.63
307.97,-17.02,1.57,-5.02
308.01,-6.79,-1.61,-3.84
308.06,-14,8.63,15.49
308.1,-11.53,0.98,6.32
308.14,-3.02,2.35,5.3
308.18,-12.67,3.53,6.75
308.22,-6.12,7.06,3.57
308.27,-9.38,4.55,0.98
308.31,-9.45,3.1,-2.08
308.35,-9.1,0.82,-0.78
308.39,-7.02,-0.08,0.71
308.43,-9.96,1.69,0.71
308.48,-7.41,3.1,-1.37
308.52,-11.41,0.24,0.08
308.56,-8.39,1.29,-2.08
308.6,-11.41,4.67,-1.53
308.64,-12.24,-1.02,0.86
308.69,-14.36,8.12,7.85
308.73,-19.69,10.67,8.12
308.77,-9.69,8.71,5.02
308.81,-9.18,4,3.26
308.85,-6.9,0.98,-0.39
308.9,-8.63,1.37,-1.29
308.94,-6.67,1.26,-0.9
308.98,-3.02,2.71,1.29
309.02,-2,2.94,1.73
309.06,-6.2,3.26,-0.75
309.11,-10.51,3.22,-2.31
309.15,-16.71,1.65,-4.63
309.19,-11.1,-1.57,-3.3
309.23,-7.57,9.92,-6.28
309.27,-14.16,5.06,6.32
309.32,-7.06,0.55,3.53
309.36,-9.14,2.39,5.33
309.4,-9.26,8.79,6.94
309.44,-6.08,3.02,3.33
309.48,-4.86,3.49,2.55
309.53,-10.47,-0.55,0.55
309.57,-10.51,0.08,-2.24
309.61,-9.22,1.14,0.35
309.65,-7.65,0.82,1.37
309.69,-9.45,1.33,1.06
309.74,-9.02,1.06,0.39
309.78,-9.57,3.02,-0.51
309.82,-9.81,-0.31,-0.55
309.86,-16.95,-0.59,0.71
309.9,-14.91,8.87,5.3
309.95,-15.53,10.36,6.67
309.99,-13.38,10.28,4.86
310.03,-6.83,2.63,1.29
310.07,-7.06,1.45,-0.27
310.11,-7.18,1.1,-0.39
310.16,-4.86,1.49,0.04
310.2,-2.08,2.24,0.59
310.24,-4.47,2.39,-0.63
310.28,-9.02,3.26,-2.55
310.32,-11.89,3.41,-3.49
310.37,-13.73,2.31,-5.49
310.41,-10.75,-0.71,-1.77
310.45,-19.57,11.22,7.22
310.49,-8.51,1.41,7.88
310.53,-6.94,3.69,6.9
310.58,-10.2,2.67,4.24
310.62,-9.3,6.71,3.3
310.66,-8.55,2.94,-1.33
310.7,-7.88,2.55,1.06
310.74,-9.57,0,-0.55
310.79,-9.38,1.8,-0.47
310.83,-9.22,1.77,0.94
310.87,-9.26,1.22,1.14
310.91,-7.85,1.61,0.24
310.95,-9.06,1.69,1.88
311,-10.04,3.84,-2
311.04,-9.53,-0.08,-1.65
311.08,-11.61,0.24,0.98
311.12,-16.36,10.08,6.39
311.16,-17.77,11.22,9.3
311.21,-12.79,9.61,6.63
311.25,-9.41,0.63,-0.43
311.29,-8.2,2.08,-0.98
311.33,-7.26,0.75,-2
311.37,-3.26,1.84,1.41
311.42,-1.65,2.55,1.92
311.46,-2.59,2.47,0.39
311.5,-8.39,2.35,-0.39
311.54,-10.87,4.04,-3.02
311.58,-14.59,0.63,-4
311.63,-11.41,-2.43,-0.59
311.67,-11.57,10.55,-1.69
311.71,-12.4,3.3,6.35
311.75,-6.2,2.79,6.83
311.79,-9.02,3.33,5.57
311.84,-3.84,7.45,3.3
311.88,-8.32,3.41,1.49
311.92,-7.96,2.51,0.98
311.96,-10.16,-0.24,-0.55
312,-7.96,1.37,-1.37
312.05,-8.75,2.51,1.77
312.09,-9.53,1.29,0.94
312.13,-8.98,0.39,2.08
312.17,-8.79,1.96,0.59
312.21,-10.24,0.98,-0.98
312.26,-10.08,1.29,-2.08
312.3,-10.75,7.3,2.43
312.34,-15.57,12.4,5.77
312.38,-15.3,7.73,5.49
312.42,-10.16,8.08,4.39
312.47,-6.67,2.47,1.53
312.51,-7.57,0.59,-0.39
312.55,-7.3,-0.39,-1.57
312.59,-3.77,1.1,0.47
312.63,-1.26,1.69,0.75
312.68,-1.96,2.63,0.67
312.72,-6.08,2.94,-1.49
312.76,-17.06,6.24,-2.9
312.8,-18.63,-0.04,-5.96
312.84,-3.22,3.8,-9.26
312.89,-20.01,11.26,2.98
312.93,-2.16,3.8,2.94
312.97,-8,3.45,5.3
313.01,-11.18,3.88,7.61
313.05,-6.63,6.08,2.51
313.1,-8.67,3.06,0.04
313.14,-9.34,0.71,-0.59
313.18,-9.41,0.82,-1.06
313.22,-9.22,2.2,-0.63
313.26,-9.02,1.77,1.57
313.31,-6.98,-0.35,0.2
313.35,-9.96,0.24,-0.27
313.39,-9.89,3.26,-1.06
313.43,-14.87,0,-2.04
313.47,-12.4,3.02,2.47
313.52,-16.44,9.65,6.12
313.56,-15.65,12.16,8.94
313.6,-8.36,5.81,3.1
313.64,-7.37,0,-1.26
313.68,-6.9,1.22,-0.55
313.73,-5.14,1.1,0.55
313.77,-2.43,1.65,0.9
313.81,-0.39,2.71,0.2
313.85,-7.85,2.63,-1.29
313.89,-11.89,3.65,-2.86
313.94,-17.22,2.9,-7.26
313.98,-12.08,2.2,-4.31
314.02,-17.26,13.34,4.28
314.06,-9.41,9.61,3.77
314.1,-5.33,2.79,7.06
314.15,-9.3,3.92,9.26
314.19,-6.94,3.65,3.69
314.23,-11.22,4.43,2.82
314.27,-10.2,2.39,-1.49
314.31,-8.63,2.35,-0.75
314.36,-9.22,-0.04,0
314.4,-8.28,1.33,-0.31
314.44,-8.94,0.39,-0.08
314.48,-7.81,0.16,0.35
314.52,-7.88,1.61,2.67
314.57,-8.2,3.37,1.45
314.61,-20.01,-0.55,1.22
314.65,-7.65,5.88,2.2
314.69,-15.26,10.79,4.55
314.73,-13.3,5.73,4.43
314.78,-11.89,9.57,3.69
314.82,-7.85,3.33,2.35
314.86,-6.16,2.12,0.31
314.9,-6.35,-0.16,-0.12
314.94,-3.49,1.45,1.18
314.99,-0.51,2.43,0.82
315.03,-4.94,4.79,-0.51
315.07,-14,3.33,-1.57
315.11,-17.22,2.16,-5.41
315.15,-7.34,1.96,-5.1
315.2,-20.01,9.18,12.94
315.24,-7.41,2.9,5.73
315.28,-4.94,3.37,5.77
315.32,-9.81,3.06,6.86
315.36,-4.94,5.53,1.92
315.41,-9.49,3.14,1.49
315.45,-10,2.2,-0.51
315.49,-10.04,1.1,-0.75
315.53,-7.65,0.39,0.59
315.57,-8.98,1.29,0.9
315.62,-9.14,1.06,1.02
315.66,-8.04,0.47,1.73
315.7,-9.61,2.86,-1.69
315.74,-10.47,-0.27,-2.31
315.78,-13.61,-5.1,7.77
315.83,-10.43,5.06,6.08
315.87,-18.71,9.34,5.06
315.91,-16.04,10.16,5.22
315.95,-9.92,5.41,2.82
315.99,-8.28,2.67,0.9
316.04,-7.49,1.84,-0.78
316.08,-5.65,1.06,-0.16
316.12,-1.22,1.57,0.9
316.16,-0.04,0.71,0.86
316.2,-5.45,3.26,-2.24
316.25,-18.59,5.37,-2.2
316.29,-14.98,0.31,-7.06
316.33,-5.1,2.79,-5.53
316.37,-17.97,9.22,3.53
316.41,-2.86,3.22,1.88
316.46,-10.32,3.69,5.92
316.5,-9.26,3.61,6.08
316.54,-7.53,7.61,4.75
316.58,-9.38,3.14,0.27
316.62,-9.89,3.41,0.27
316.67,-7.96,-0.12,-0.78
316.71,-6.63,-0.51,-0.39
316.75,-8.98,1.84,2.2
316.79,-9.1,2.04,1.14
316.83,-9.57,1.69,0.27
316.88,-8.67,-0.12,0.63
316.92,-11.81,4.51,-1.57
316.96,-13.38,-4.31,5.41
317,-9.69,9.57,1.69
317.04,-16,5.65,6
317.09,-19.97,11.14,6.9
317.13,-9.77,7.41,3.96
317.17,-4.47,2.39,0.39
317.21,-5.53,1.1,-0.16
317.25,-4.79,0,-0.71
317.3,-2.94,1.49,0.43
317.34,-3.06,2.28,1.26
317.38,-6.08,3.65,-2.04
317.42,-10.43,2.2,-1.92
317.46,-19.77,3.37,-5.06
317.51,-10.71,-3.96,-2.86
317.55,-20.01,4.28,20.01
317.59,-8.79,2.63,9.02
317.63,-6.59,5.96,9.65
317.67,-7.57,4.04,6.04
317.72,-9.96,4.12,4.55
317.76,-9.34,2.47,0.55
317.8,-9.38,1.29,-1.22
317.84,-9.96,1.65,-0.86
317.88,-8.94,1.77,-0.51
317.93,-9.89,1.53,1.49
317.97,-7.81,1.26,-0.31
318.01,-8.79,0.55,1.65
318.05,-7.69,1.53,0.47
318.09,-9.41,2.55,-1.14
318.14,-11.06,-1.69,-1.41
318.18,-11.41,-0.39,5.65
318.22,-14.95,14.75,3.65
318.26,-16.71,7.88,6.08
318.3,-12.16,8.87,4.43
318.35,-7.22,4.28,1.22
318.39,-6.67,3.37,0.51
318.43,-6.24,1.69,-0.2
318.47,-3.8,1.53,0.59
318.51,-2.24,1.14,0.55
318.56,-3.65,1.53,-0.31
318.6,-9.06,2.2,-1.37
318.64,-13.53,3.18,-3.77
318.68,-13.34,0.67,-5.22
318.72,-6.08,-0.94,-1.53
318.77,-20.01,12.83,6.94
318.81,-4.55,2.67,4.28
318.85,-7.45,2.79,7.69
318.89,-9.06,4.04,8.87
318.93,-5.22,4.51,1.37
318.98,-8.9,5.06,1.22
319.02,-9.22,1.41,-0.67
319.06,-10.08,-0.16,-1.18
319.1,-8.04,1.84,-1.06
319.14,-8.59,1.06,1.73
319.19,-8.79,0.59,0.82
319.23,-9.65,0.63,0.43
319.27,-8.32,2.47,1.92
319.31,-12.91,1.14,-2.94
319.35,-10.08,5.49,-0.24
319.4,-14.16,12.67,7.61
319.44,-16.67,8.55,5.37
319.48,-11.3,9.18,5.22
319.52,-7.81,2.2,1.77
319.56,-5.84,2.86,0
319.61,-6.47,0.47,-0.24
319.65,-2.59,1.65,0.82
319.69,0.12,2.12,0.71
319.73,-4.08,2.98,-0.82
319.77,-12.71,2.94,-2.86
319.82,-17.77,1.65,-7.49
319.86,-8.87,-1.53,-1.65
319.9,-2.43,13.65,-1.1
319.94,-18.95,4.12,11.85
319.98,-2.67,1.29,5.06
320.03,-9.92,3.69,5.73
320.07,-9.22,4.9,7.61
320.11,-7.77,4.51,1.57
320.15,-10.08,0.9,-0.16
320.19,-12,-0.43,-1.96
320.24,-8,1.41,0.47
320.28,-7.81,1.8,1.22
320.32,-9.38,1.02,0.71
320.36,-8.67,-0.59,-1.45
320.4,-9.02,2.43,1.88
320.45,-11.22,3.41,-5.65
320.49,-12.59,-4.2,4.47
320.53,-15.53,10.2,6.39
320.57,-12.91,6.32,4.63
320.61,-18.2,10.28,5.65
320.66,-9.61,7.61,3.77
320.7,-5.92,3.14,0.08
320.74,-6.94,1.73,0
320.78,-4.67,0.59,-0.51
320.82,-2.86,1.65,1.06
320.87,-3.3,2.39,0.94
320.91,-5.96,3.1,-1.45
320.95,-9.57,4.43,-2.79
320.99,-13.57,0.63,-3.92
321.03,-9.49,-2.94,-1.06
321.08,-20.01,-3.37,20.01
321.12,-12.12,2.67,7.96
321.16,-8.32,4.79,8.83
321.2,-8.12,5.45,7.18
321.24,-7.81,5.02,4.35
321.29,-8.59,4.51,0.55
321.33,-9.38,0.78,-1.06
321.37,-10.04,0,-1.53
321.41,-8.32,0.82,-1.22
321.45,-10.08,2.79,2.47
321.49,-9.96,1.33,0.78
321.54,-8.9,0,-0.35
321.58,-7.88,2.16,2.24
321.62,-9.57,1.84,-0.55
321.66,-9.61,2.71,-2.98
321.7,-7.85,-1.26,2.47
321.75,-9.3,3.53,1.69
321.79,-19.1,7.41,6.43
321.83,-20.01,12.4,6.32
321.87,-12.63,11.06,8.04
321.92,-3.96,0.55,1.69
321.96,-4.55,-0.16,0.9
322,-5.49,-0.27,-0.35
322.04,-5.06,1.18,-1.18
322.08,-4.2,2.82,-1.18
322.12,-6.9,2.67,-1.33
322.17,-8.87,1.84,-2
322.21,-14.28,4.28,-5.41
322.25,-13.18,0.12,-5.33
322.29,-3.57,-0.24,-4.28
322.33,-20.01,4.31,20.01
322.38,0.27,7.92,5.45
322.42,-10.75,2.71,9.38
322.46,-12.83,4.79,7.77
322.5,-10.36,5.14,2.75
322.55,-10.9,0.98,-2.04
322.59,-7.57,1.02,-1.96
322.63,-8.39,2.12,2
322.67,-6.04,1.8,1.37
322.71,-11.85,2.71,1.88
322.76,-9.61,-0.27,-0.59
322.8,-9.53,-0.35,0.63
322.84,-8.12,3.1,1.18
322.88,-10.94,2,-1.14
322.92,-14,0.08,1.69
322.96,-14.55,8.24,4.75
323.01,-16.63,7.06,4.63
323.05,-16.51,13.3,6.94
323.09,-9.3,8.16,5.26
323.13,-3.22,2.39,0.27
323.17,-4.39,0.2,0.43
323.22,-4.24,0.63,-0.08
323.26,-2.51,1.41,-0.24
323.3,-8.08,4.16,-1.18
323.34,-11.22,2.82,-3.88
323.38,-8.63,2.16,-2.9
323.43,-10.28,2.12,-3.69
323.47,-7.57,-1.06,-1.96
323.51,-7.45,11.45,-1.49
323.55,-20.01,7.49,-1.73
323.59,-2.51,-0.24,5.33
323.64,-9.22,4,7.77
323.68,-9.73,3.41,8.51
323.72,-8.55,4.9,2.63
323.76,-10.83,2.28,-0.08
323.8,-8.2,1.96,-1.45
323.85,-10.55,1.06,-0.86
323.89,-6.16,1.88,2.31
323.93,-8.39,2,2.16
323.97,-11.14,0.2,-0.55
324.01,-8.83,1.33,1.22
324.06,-10.12,2.43,-1.53
324.1,-12.4,-4.59,0.82
324.14,-11.89,10.28,2.71
324.18,-13.69,7.81,6
324.22,-14.79,7.61,5.33
324.27,-11.02,11.06,5.61
324.31,-7.34,4.67,2.35
324.35,-6.98,-0.08,0.63
324.39,-4.67,0.55,-0.47
324.43,-4.16,1.02,0.55
324.48,-3.1,2.39,1.37
324.52,-3.1,4.86,0.35
324.56,-10.28,4.2,-3.49
324.6,-14.16,0.43,-3.18
324.64,-9.53,-1.77,-3.65
324.69,-5.18,8.87,-7.57
324.73,-20.01,16.71,4.82
324.77,-5.37,3.92,9.45
324.81,-12.63,4.51,8.36
324.85,-8.47,2.82,5.37
324.9,-9.45,4.39,2.39
324.94,-8.28,0.04,-2.67
324.98,-9.53,2.71,-1.22
325.02,-8.43,1.88,0.55
325.06,-8.32,0.39,2.43
325.11,-9.61,3.22,0.78
325.15,-9.41,0.35,1.22
325.19,-8.55,1.1,1.06
325.23,-8.94,2.79,0.55
325.27,-10.75,2.55,-2.16
325.32,-15.57,-4.08,4.86
325.36,-11.34,7.18,7.06
325.4,-12.28,5.61,5.41
325.44,-16.08,8.43,3.22
325.48,-9.06,8.51,4.67
325.53,-6.83,2.94,1.49
325.57,-7.37,0.82,0.24
325.61,-5.49,0.98,-0.55
325.65,-3.49,1.88,1.14
325.69,-3.22,1.53,1.29
325.74,-6.04,3.73,-1.06
325.78,-9.49,2.55,-2.31
325.82,-14.47,5.81,-6.04
325.86,-11.69,1.84,-4.51
325.9,-5.37,0.31,-2.31
325.95,-20.01,6.51,20.01
325.99,-1.41,6.43,4.04
326.03,-5.3,5.37,6.08
326.07,-9.45,4.39,6.39
326.11,-12.16,4.47,3.02
326.16,-12.04,-0.24,-3.26
326.2,-8.04,1.45,-2.59
326.24,-10.2,0.08,1.22
326.28,-6.2,3.61,1.26
326.32,-8.12,4.39,3.8
326.37,-7.57,1.8,2.75
326.41,-9.22,1.18,0.35
326.45,-10.87,-0.59,-0.78
326.49,-10.59,1.37,-3.22
326.53,-13.49,-2.08,3.02
326.58,-13.81,13.06,5.73
326.62,-11.61,7.61,4.31
326.66,-15.85,9.1,5.3
326.7,-9.3,7.81,3.26
326.74,-6.47,2.79,-0.35
326.79,-7.53,0.63,0.35
326.83,-4.59,0.55,-0.86
326.87,-2,1.8,1.84
326.91,-1.69,3.84,1.22
326.95,-10.24,5.1,-2.12
327,-14.08,1.73,-2.67
327.04,-10.32,3.33,-3.61
327.08,-9.18,0.86,-2.16
327.12,-10.28,13.26,-0.78
327.16,-16.67,4.82,3.41
327.21,-4.31,2.39,5.61
327.25,-11.45,3.33,5.69
327.29,-9.85,3.3,7.22
327.33,-7.1,5.26,1.96
327.37,-8.51,0.75,0.67
327.42,-8.79,0.86,0.08
327.46,-9.85,1.06,-0.86
327.5,-9.49,2.47,1.14
327.54,-8.67,0.35,0.67
327.58,-8.87,0.12,0.08
327.63,-8.55,2.55,2.82
327.67,-9.85,4.98,0.12
327.71,-11.69,-0.47,-1.84
327.75,-11.85,-0.16,0.31
327.79,-16.44,10.51,5.1
327.84,-17.42,8.28,6.67
327.88,-12.51,10.16,5.1
327.92,-7.02,2.75,1.06
327.96,-7.26,2.08,0.78
328,-6.12,0.63,-0.51
328.05,-3.8,0.71,-0.47
328.09,-1.61,1.57,0.27
328.13,-6.2,3.22,0.47
328.17,-9.77,3.57,-2.51
328.21,-11.92,4.79,-4.82
328.26,-12.87,1.45,-5.14
328.3,-6,-1.92,-1.37
328.34,-17.46,12.16,14.04
328.38,-10,2.79,4
328.42,-0.75,0.47,2.75
328.47,-10.51,4.71,8.28
328.51,-7.73,5.69,7.06
328.55,-7.73,5.57,2.98
328.59,-10,0.04,-0.27
328.63,-11.26,-0.63,-0.9
328.68,-9.61,1.53,-1.45
328.72,-8.08,2.12,1.84
328.76,-9.45,1.77,2.28
328.8,-9.65,0.55,0.24
328.84,-7.85,1.14,1.26
328.89,-9.1,3.92,-2.2
328.93,-9.92,0.67,0.04
328.97,-13.26,-0.98,3.8
329.01,-12.79,8.75,3.26
329.05,-19.77,9.49,8.32
329.1,-12.79,11.06,5.65
329.14,-6.98,4.12,1.49
329.18,-6.04,1.53,0.67
329.22,-6.63,1.06,-0.59
329.26,-3.53,2.63,-1.33
329.31,-2.51,3.02,0.71
329.35,-4.94,1.84,0.27
329.39,-8.39,1.61,-1.65
329.43,-10.83,2.51,-3.18
329.47,-13.26,3.26,-4.71
329.52,-10.24,-0.12,-4.24
329.56,-20.01,16.99,5.18
329.6,-9.77,1.41,9.57
329.64,-6.24,3.18,7.26
329.68,-11.06,5.81,8.08
329.73,-8.16,4.51,1.57
329.77,-9.26,1.77,0.43
329.81,-7.81,0.47,-0.24
329.85,-9.65,1.33,-0.24
329.89,-9.14,3.22,0.9
329.94,-7.61,0.31,0.71
329.98,-9.69,0.2,-1.57
330.02,-8.83,0.04,-0.24
330.06,-7.37,5.84,-0.67
330.1,-11.06,-3.45,-0.75
330.15,-20.01,1.02,1.92
330.19,-14.91,8.28,7.34
330.23,-13.45,8.08,4.82
330.27,-11.57,8.47,3.77
330.31,-7.81,4.63,2.9
330.36,-5.96,0.59,0
330.4,-6.35,0.24,0.24
330.44,-4.08,1.1,0.16
330.48,-1.57,3.33,0.43
330.52,-6.71,6.51,-1.77
330.57,-12.2,3.22,-3.57
330.61,-12.98,1.73,-4.39
330.65,-10.2,0.47,-4.12
330.69,-6.75,2,-0.55
330.73,-20.01,10.87,14.24
330.78,-4.08,-0.12,-2.31
330.82,-11.41,5.26,8.94
330.86,-9.73,7.3,9.1
330.9,-7.18,4.47,2.43
330.94,-9.45,0.71,-0.39
330.99,-8.87,1.65,-0.04
331.03,-10.28,2.47,-0.16
331.07,-7.02,2.98,1.33
331.11,-8.39,1.26,1.02
331.15,-8.71,-0.47,-1.41
331.2,-9.41,0,0.08
331.24,-9.53,4.39,0.47
331.28,-16.08,-4.75,2.31
331.32,-10.08,7.96,2.47
331.36,-13.06,8.08,4.04
331.41,-15.02,9.38,3.96
331.45,-9.65,9.1,4.24
331.49,-7.53,2.12,-0.12
331.53,-8.59,0.63,-0.24
331.57,-6.51,0.39,-1.33
331.62,-2.35,2.24,1.02
331.66,-0.63,3.41,1.96
331.7,-5.3,3.45,-0.67
331.74,-11.69,4.86,-2.9
331.78,-16.16,2.79,-5.61
331.83,-12.04,-1.02,-0.82
331.87,-1.26,13.61,-5.1
331.91,-20.01,11.26,4.86
331.95,2.75,4.31,2.31
331.99,-10.98,3.57,6.83
332.04,-8.83,4.98,6.75
332.08,-9.85,4.98,3.3
332.12,-9.49,2.39,-1.22
332.16,-9.96,0.9,-0.2
332.2,-6,-0.35,-0.86
332.25,-8.87,1.53,2.39
332.29,-8.32,4.67,0.39
332.33,-10.83,0.39,1.41
332.37,-10.12,1.18,-1.33
332.41,-8.59,3.33,0.67
332.46,-11.26,-4.98,1.61
332.5,-12.04,9.26,4.67
332.54,-15.06,8.67,6.43
332.58,-19.22,10.83,4.98
332.62,-10.87,9.69,6.35
332.67,-5.88,1.96,0.55
332.71,-7.57,0.82,1.33
332.75,-5.37,0.71,0.94
332.79,-3.57,2.08,1.73
332.83,-1.33,2.39,0.63
332.88,-4.24,1.96,-1.65
332.92,-8.2,3.37,-2.43
332.96,-15.38,3.88,-2.35
333,-13.96,0.86,-5.41
333.04,-2.75,7.45,-5.65
333.09,-20.01,9.85,10.51
333.13,-2.82,1.96,3.88
333.17,-6.83,2.47,6.2
333.21,-13.3,3.37,9.02
333.25,-3.73,8.36,0.71
333.3,-7.96,3.57,-0.86
333.34,-10.24,1.53,-0.2
333.38,-9.26,0.82,-0.78
333.42,-7.85,2.04,0.24
333.46,-8.87,1.92,1.8
333.51,-10.2,0.63,0.47
333.55,-9.89,-0.12,-0.12
333.59,-11.1,3.73,-2.39
333.63,-8.55,3.37,-1.33
333.67,-12.47,-2.31,3.84
333.72,-14.4,9.53,3.02
333.76,-18.2,7.14,5.81
333.8,-11.89,9.45,6.59
333.84,-6.9,2.47,2.31
333.88,-5.14,1.61,-0.12
333.93,-5.57,-0.51,-0.67
333.97,-2.71,0.9,0.04
334.01,-1.29,2.63,1.26
334.05,-3.14,4.98,1.96
334.09,-12.36,5.65,-2.63
334.14,-12.04,2.59,-4.82
334.18,-15.34,0.98,-2.86
334.22,-14.47,1.1,-0.08
334.26,-12.2,16.12,-4.71
334.3,-2.47,-0.98,3.53
334.35,-6.24,3.33,6.16
334.39,-10.28,3.96,7.26
334.43,-6.55,6,2.79
334.47,-9.77,1.73,-0.12
334.51,-11.1,0.98,0.12
334.56,-10,-0.04,-1.84
334.6,-7.41,0.35,-0.12
334.64,-9.34,0.51,2.82
334.68,-8.16,1.49,1.33
334.72,-10.04,1.29,0.27
334.77,-11.22,2.08,-0.75
334.81,-17.65,-1.45,2.79
334.85,-10.24,3.8,4.43
334.89,-15.97,8.9,5.92
334.93,-18.12,11.18,6.86
334.98,-9.38,7.61,5.37
335.02,-4.43,0.94,-0.94
335.06,-7.14,0.24,0.27
335.1,-5.92,1.06,-1.26
335.14,-1.18,3.22,0.94
335.19,-3.14,3.77,0.12
335.23,-10.24,1.69,-2.43
335.27,-7.96,2.67,-3.3
335.31,-16.91,6.39,-3.73
335.35,-13.02,-1.18,-1.33
335.4,4,6.32,-10.4
335.44,-20.01,11.3,7.26
335.48,-2.67,3.96,1.57
335.52,-9.69,2.55,4.86
335.56,-11.57,4.55,4.9
335.61,-6.83,2,0.43
335.65,-7.61,-0.43,0.08
335.69,-9.53,-1.41,0.16
335.73,-9.73,5.14,-1.41
335.77,-7.61,0.12,2.24
335.82,-9.85,-0.27,1.26
335.86,-8.83,0.63,0.12
335.9,-9.3,2.47,2.04
335.94,-13.3,3.84,-6.51
335.98,-15.73,-3.8,2.28
336.03,-7.88,4.35,8.98
336.07,-17.42,10.75,7.1
336.11,-12.24,11.38,6.35
336.15,-7.81,4.12,3.45
336.19,-5.92,1.45,0
336.24,-7.85,0.08,0.08
336.28,-4.59,1.88,0.39
336.32,-0.47,2.94,1.22
336.36,-3.06,3.49,0
336.4,-13.02,4.47,-2.55
336.45,-16.67,2.51,-5.49
336.49,-9.85,0.59,-4.28
336.53,-1.65,2.08,-4.2
336.57,-20.01,1.8,20.01
336.61,-6.86,1.02,5.77
336.66,-6.04,1.96,5.65
336.7,-17.06,5.53,10.28
336.74,-5.26,9.61,2.67
336.78,-10.4,2.51,-0.24
336.82,-8.55,0.67,-0.08
336.87,-8.28,-0.82,-0.55
336.91,-7.69,1.45,-0.63
336.95,-9.81,3.69,0.63
336.99,-11.18,-0.24,0.51
337.03,-9.22,-0.78,0.04
337.08,-9.92,2.39,0.78
337.12,-11.65,-0.75,-3.57
337.16,-14.36,3.69,2.35
337.2,-13.1,4.75,7.14
337.24,-16.32,10.79,7.18
337.29,-9.41,10.08,6.04
337.33,-6.75,2.55,2.12
337.37,-5.88,2.39,0.04
337.41,-7.49,-0.27,0.27
337.45,-5.33,1.14,0.27
337.5,-2.35,3.57,1.37
337.54,-4.47,4.31,-0.47
337.58,-10.94,2.94,-2.2
337.62,-11.34,2.24,-5.26
337.66,-12.71,0.82,-5.18
337.71,-8.51,-2.12,-1.1
337.75,-20.01,11.85,19.53
337.79,-12.32,6.28,6.28
337.83,-4.04,2.79,7.45
337.87,-9.69,5.06,8.47
337.92,-7.92,4.86,2.86
337.96,-10.59,2.31,1.06
338,-8.36,1.53,-1.26
338.04,-11.34,0.78,-0.47
338.08,-7.1,0.94,-0.82
338.13,-8.08,1.29,2.08
338.17,-8.79,1.61,0.94
338.21,-11.14,0.71,1.88
338.25,-9.41,2.28,2.2
338.29,-12.2,-0.75,-2.31
338.34,-15.34,-0.67,0.27
338.38,-8.04,2.67,3.06
338.42,-17.38,10.75,6.63
338.46,-11.57,10.94,6.83
338.5,-8.43,4.59,3.77
338.55,-6.2,0.67,-0.08
338.59,-8.24,0.71,0.31
338.63,-6,1.18,-0.08
338.67,-1.53,2.63,0.98
338.71,-0.82,3.61,0.35
338.76,-9.26,2.43,-1.61
338.8,-9.1,3.14,-4.28
338.84,-15.81,4,-4.28
338.88,-10.55,-0.27,-1.57
338.92,-15.1,14.75,7.61
338.97,-12.55,7.26,-1.02
339.01,-0.35,0.04,1.53
339.05,-9.1,4,9.53
339.09,-9.69,2.47,4.94
339.13,-7.53,5.61,0.82
339.18,-10.12,3.18,-1.88
339.22,-9.18,0.75,0.71
339.26,-8.47,0.35,0.31
339.3,-8.75,2.51,0.39
339.34,-8.75,2.39,2.08
339.39,-8.9,1.18,1.92
339.43,-10.04,1.84,1.84
339.47,-10,2.28,-0.63
339.51,-14,0,-0.9
339.55,-10.16,0.08,0.51
339.6,-15.77,10.83,6.08
339.64,-20.01,12.32,9.65
339.68,-8.32,4.86,3.45
339.72,-5.06,-0.67,-0.31
339.76,-6.04,0.82,0.51
339.81,-5.92,1.18,1.06
339.85,-1.8,2.67,2.16
339.89,-1.92,3.41,2.47
339.93,-5.77,5.41,-0.78
339.97,-13.22,2.12,-2.71
340.02,-13.1,-0.78,-4.08
340.06,-11.22,-4,0.82
340.1,-20.01,6.35,17.65
340.14,-12.16,-0.35,4.94
340.18,-6.08,2.59,6.35
340.23,-15.38,5.41,8.75
340.27,-4.35,6.79,4.43
340.31,-5.88,2.47,0.2
340.35,-8.94,3.06,0.75
340.39,-9.45,4.12,-1.29
340.44,-9.89,2.39,2.16
340.48,-9.85,1.49,2.39
340.52,-10.32,0.98,1.22
340.56,-10.43,1.22,1.26
340.6,-9.1,1.84,2.28
340.65,-8.87,2.9,3.73
340.69,-8.43,4.51,1.61
340.73,-8.55,3.65,2.16
340.77,-8.32,1.77,2.82
340.81,-8.75,2.47,2.63
340.86,-9.38,3.57,1.8
340.9,-8.47,2.63,2.31
340.94,-7.96,2.86,2.86
340.98,-8.75,3.77,2.47
341.02,-9.22,3.14,2.39
341.07,-8.75,2.12,2.35
341.11,-8.79,3.18,2.39
341.15,-9.22,2.43,2.2
341.19,-9.14,3.06,2.12
341.23,-8.47,3.33,2.55
