NAME:,walk_5_1.csv,,
EXPERIMENT TIME:,25-05-22 18:30,,
ACTIVITY TYPE:,Walking,,
COUNT OF ACTUAL STEPS:,140,,
,,,
Time [sec],ACC X,ACC Y,ACC Z
0.001,-0.9,-1.61,10.43
0.01,-0.75,-1.49,10.12
0.04,-0.94,-1.57,10.28
0.074,-1.02,-1.53,10.32
0.103,-0.94,-1.65,10.28
0.134,-1.02,-1.8,10.16
0.168,-1.1,-1.84,10.16
0.203,-1.06,-1.77,10.36
0.237,-1.1,-1.92,10.32
0.274,-1.02,-2.2,10.24
0.307,-1.41,-2,9.85
0.341,-1.33,-1.96,10
0.375,-0.9,-1.96,10.08
0.395,-1.29,-1.8,10
0.422,-1.45,-1.96,10.16
0.457,-1.14,-1.77,10.43
0.492,-1.92,-1.53,10.59
0.526,-1.37,-0.51,9.96
0.56,-0.98,-0.24,10.51
0.594,-1.1,-0.12,10.75
0.629,-0.75,-0.71,10.08
0.663,-0.98,-0.43,10.59
0.699,-0.75,0.51,10.28
0.712,-1.06,0.59,10
0.761,-1.65,0.78,10
0.795,-1.33,0.2,10
0.812,-1.1,-0.04,10.12
0.84,-1.18,0.51,10.08
0.874,-1.22,0.39,10
0.908,-1.26,0.47,9.81
0.942,-1.49,0.31,9.73
0.978,-2.43,0.2,9.92
1.011,-2.08,-0.08,10.4
1.045,-2.04,0.9,11.69
1.08,-2.86,0.86,12.67
1.113,-2.16,1.37,14.55
1.148,-2.24,1.69,16.04
1.16,-2.82,4.16,13.34
1.231,-3.96,4.2,10.4
1.298,-2.94,0.43,6.83
1.367,-3.26,-0.75,8.67
1.413,-3.45,-3.06,12.59
1.427,-2.43,-2.28,13.81
1.442,-2.12,-1.41,8.55
1.444,-1.96,-1.96,7.14
1.458,-0.82,-2.75,7.49
1.487,-0.24,-2.04,7.22
1.511,0.63,-1.73,8.39
1.544,1.02,-2.12,8.2
1.596,1.96,-2.75,7.41
1.611,2.75,-1.65,8.59
1.646,2.35,-0.16,12.12
1.68,2.43,0.27,12.75
1.715,0.63,-1.8,12.83
1.736,4.79,-5.02,13.34
1.776,4.2,-2.75,13.18
1.809,-4.75,-5.37,13.1
1.835,-3.96,-5.45,12.12
1.861,0.55,-0.35,11.26
1.895,-2.12,1.41,7.3
1.928,2.71,-2.63,12.83
1.962,-1.29,-3.18,12.43
1.997,-0.31,-1.49,6
2.041,-1.57,-0.63,7.61
2.074,-2.43,-0.16,9.26
2.091,-1.8,0.43,8.08
2.118,-1.14,-0.08,8.2
2.152,-0.71,0.27,8.47
2.186,-2.28,1.1,9.69
2.22,-2.39,-1.1,11.61
2.253,-1.45,-2.04,13.81
2.292,-1.61,0.27,12.36
2.322,-2.08,3.96,12.32
2.354,-3.26,-0.98,15.3
2.391,-6.94,1.33,12.51
2.425,-7.06,1.84,7.3
2.459,-1.8,-4.94,12
2.476,-2.31,-4.35,13.89
2.503,-2.28,-0.24,11.41
2.536,-2.82,2.47,6.2
2.572,-0.86,-1.77,7.96
2.606,-0.9,-2.67,6.51
3.084,-0.24,-2.39,5.88
3.598,0.67,-2.67,7.02
3.604,1.8,-1.29,7.34
3.61,-0.94,-2.72,11.02
3.628,-3.06,2.51,6.32
3.654,-0.82,-0.43,6.28
3.697,-0.27,-1.92,4.47
3.725,0.47,-2.55,6.04
3.758,0.51,-2.94,7.49
3.792,0.9,-2.24,6.67
3.826,1.96,-1.65,7.41
3.86,2.67,-1.41,10.98
3.897,2,0.98,15.97
3.933,-1.29,-1.77,14.71
3.965,7.45,-5.92,12.16
3.984,4.67,-2.51,16.24
4.014,-5.41,-5.96,16.08
4.041,3.26,-4.71,6.94
4.075,-1.26,-0.08,7.3
4.111,-1.41,0.35,10.87
4.147,-1.45,-1.69,9.49
4.181,-0.67,-2.51,9.14
4.216,-2.16,-0.9,7.34
4.25,-1.37,0.12,6.94
4.285,-0.63,-0.04,7.34
4.304,-0.27,1.37,8.12
4.329,-1.06,0.71,8
4.363,-2.35,0.47,9.49
4.407,-2.35,0.39,9.89
4.441,-2.43,-2.35,13.57
4.461,-1.73,-3.26,13.42
4.503,-3.02,4.43,11.38
4.536,-2.12,-1.14,14.98
4.57,-5.06,0.94,12.91
4.6,-4.47,1.65,7.45
4.635,-4.39,-4.63,11.89
4.665,-0.31,-5.92,14.24
4.701,-1.33,-2.82,12.87
4.72,-2.59,2.04,7.3
4.744,-0.98,-0.35,7.02
4.778,-0.67,-1.96,5.53
4.811,0.63,-2.75,5.96
4.845,0.27,-2.43,7.37
4.879,0.98,-2.31,6.83
4.956,2.43,-2.12,7.37
5.023,2.67,-2,10.4
5.091,3.22,-0.47,15.18
5.133,2.67,-0.16,15.34
5.152,4.75,-5.69,12
5.174,-0.63,1.73,9.77
5.209,-1.33,1.41,10.47
5.245,-1.18,-2.63,8.36
5.278,-0.43,-2.63,8.79
5.301,-1.18,-0.78,5.61
5.32,-2.9,0.08,8.08
5.356,-1.06,0.31,6.16
5.39,-0.39,0.51,7.22
5.426,-0.86,-0.12,6.55
5.46,-3.02,0.43,10.24
5.495,-2.55,-1.1,11.92
5.528,-1.26,-3.26,14.63
5.564,-2.43,3.33,12.12
5.598,-3.14,1.33,13.85
5.618,-6.59,-2.55,14.4
5.642,-7.3,2.82,8.36
5.676,-1.84,-1.45,10.12
5.71,-1.49,-6.08,14.04
5.743,-1.61,-3.8,13.22
5.788,-3.84,1.33,8.63
5.809,-0.82,-2.12,6.83
5.851,-1.1,-2.79,4.63
5.877,0.24,-2.51,5.61
5.898,0.24,-2.39,5.61
5.934,0.98,-1.37,6.35
5.968,3.18,-1.1,7.41
6.002,3.77,-1.57,11.18
6.039,1.57,-0.82,18.71
6.073,0.24,-3.53,13.53
6.108,3.14,-5.61,14.04
6.145,-5.18,-4.12,18.71
6.176,2.16,-7.73,9.81
6.2,-1.84,-0.35,8.71
6.216,-2.75,2.43,9.73
6.252,-0.94,-1.18,10.98
6.285,-1.18,-3.18,9.69
6.318,-1.33,-0.82,5.73
6.357,-3.02,0.24,7.37
6.391,-1.22,-0.78,6.51
6.424,-0.47,1.53,6.35
6.461,-1.06,0.2,7.06
6.492,-1.8,0.39,6.86
6.516,-2.71,1.1,11.57
6.54,-2.59,-1.49,15.49
6.57,-1.18,0.27,13.18
6.602,-3.26,2.9,13.22
6.636,-4.35,-3.18,14.98
6.671,-8.9,1.53,10
6.706,-9.14,2.98,12.87
6.74,-4.35,-5.84,13.69
6.815,-1.65,-6.24,14.59
6.883,-2.71,-0.82,10.12
6.95,-2.47,2.04,4.51
6.998,-1.45,-1.77,6.12
7.015,-0.27,-2.24,5.06
7.032,0.47,-1.49,4.31
7.034,4.31,-2.47,9.41
7.064,4.08,-1.61,14.75
7.107,-2.82,-0.16,19.18
7.133,9.3,-6.08,11.92
7.159,6.04,1.02,12.87
7.193,-10.36,-4,15.97
7.227,-0.47,-11.18,12.67
7.259,2.43,0.12,8.08
7.283,-4.04,2.75,8.12
7.305,-0.59,-3.53,8.79
7.338,-1.14,-4.47,11.22
7.372,-1.96,-1.06,6.94
7.405,-1.37,1.57,3.61
7.439,-1.77,-0.16,6.39
7.475,-0.24,-0.55,8.47
7.508,-1.49,0.71,8.32
7.542,-3.3,1.1,7.65
7.575,-3.02,-0.43,11.73
7.61,-2.71,-1.22,15.46
7.644,-0.55,-1.41,13.53
7.678,-3.41,4.63,11.38
7.697,-2.71,-0.67,14.87
7.722,-5.37,-1.1,12.2
7.755,-7.06,4.47,10.36
7.789,-4,-3.53,13.81
7.824,-1.41,-7.18,15.22
7.857,-1.53,-3.49,12.83
7.892,-2.86,3.61,5.73
7.926,-0.86,-0.82,6.71
7.96,-0.94,-2,4.51
7.996,-0.43,-1.49,4.55
8.03,0.71,-2.63,6.12
8.045,1.61,-0.63,6.51
8.073,4.04,-2,9.18
8.104,2.94,-1.65,13.38
8.138,0.51,1.96,19.57
8.182,6.28,-6.55,12.83
8.214,-0.86,-4.9,17.69
8.248,-12.43,-5.18,18.48
8.282,0.63,-4.04,5.18
8.325,-1.65,-0.51,8.98
8.344,-0.94,-0.27,12.59
8.36,-3.3,-0.86,10.24
8.402,-0.86,-1.73,9.18
8.44,-0.94,-0.43,6.08
8.474,-1.53,-0.08,6.43
8.509,-2.75,-0.55,7.73
8.541,-0.9,0.86,6.71
8.576,-2.04,0.82,7.49
8.596,-2.35,1.06,8.63
9.566,-2.47,0.08,12.36
9.597,-2.04,-0.86,13.85
9.599,-3.65,4.82,12.28
9.6,-5.73,-3.61,15.97
9.606,-11.65,3.57,9.69
9.622,-3.18,-0.47,11.96
9.657,-3.37,0.51,14.51
9.72,0.82,-2.31,13.73
9.744,-3.37,4.82,11.22
9.757,-5.53,-0.2,15.85
9.789,-11.02,1.29,11.41
9.824,-3.69,0.55,10.9
9.857,-3.96,-6.39,12.12
9.891,-0.86,-6.24,15.18
9.925,-2.55,-0.39,11.92
9.938,-1.57,0.04,6.04
9.967,-1.06,-2.28,6.08
10.001,-0.39,-1.1,3.8
10.035,0.47,-2.55,4.39
10.068,0.9,-3.49,6.63
10.103,2.24,0.12,5.22
10.138,5.49,-0.86,9.77
10.171,3.61,-2.24,16.16
10.205,-2.63,-0.39,19.57
10.239,10.63,-6.98,11.77
10.272,-2.39,-0.98,14.4
10.307,-5.92,-9.41,16.63
10.339,-1.49,-2,12.47
10.355,-2.98,3.22,9.26
10.381,-1.57,-0.78,10.47
10.43,-2.16,-4.98,10.43
10.466,-1.65,-1.65,8.43
10.539,-1.02,0.67,4.16
10.607,-0.82,-1.26,5.84
10.674,-2,0.55,5.61
10.691,-2.67,0,6.47
10.733,-0.82,-0.08,9.65
10.737,-2.9,-0.08,15.06
10.757,-3.37,4.79,13.26
10.789,-5.69,-3.3,14.4
10.823,-6.86,2,9.57
10.84,-5.84,-0.75,11.77
10.868,-1.26,-8.04,14.87
10.903,-1.22,-5.88,14.98
10.93,-5.14,4.28,5.96
10.963,-0.78,-0.43,6.94
10.999,-1.61,-1.33,3.96
11.032,0.04,-1.57,3.73
11.069,0.12,-2.67,6.39
11.103,2.43,-1.45,6.63
11.134,4.51,-2.63,8.67
11.17,3.8,-0.63,11.73
11.205,1.69,1.49,18.79
11.223,7.02,-4.16,13.77
11.246,6.86,2.12,10.51
11.281,-8.28,-4,13.45
11.314,-5.57,-10.36,13.1
11.348,1.73,0.24,14.98
11.384,-1.41,3.49,7.37
11.419,-0.75,-1.22,7.26
11.451,-3.73,-4.63,12.91
11.495,-1.29,-0.9,6.94
11.525,-2.04,1.33,5.3
11.555,-2.24,-0.24,7.73
11.588,-0.04,-0.16,6.39
11.602,-0.55,0.59,6.94
11.656,-2.16,0.47,6.67
11.673,-2.28,0.27,11.92
11.696,-2.59,-1.61,15.42
11.731,-1.77,1.96,13.3
11.763,-3.14,3.84,13.26
11.796,-4.75,-2.55,12.28
11.834,-8.55,2.75,8.04
11.867,-7.37,-0.35,12.94
11.902,-1.45,-8.63,16.4
11.932,-1.06,-5.81,15.14
11.967,-3.84,4.67,5.84
12.001,-1.29,-0.47,5.53
12.035,-0.75,-1.96,4.04
12.054,0.27,-2.35,4.28
12.101,0.94,-3.92,5.14
12.12,1.84,-1.49,5.92
12.149,4.98,-1.1,8.43
12.177,4.63,-1.22,12.91
12.21,-2.28,1.29,20.01
12.251,10.83,-6.55,12.04
12.278,4.94,1.06,10.59
12.326,-12.08,-5.84,16.12
12.399,-1.41,-9.22,11.41
12.466,2.55,1.96,10.94
12.533,-4.55,3.92,7.77
12.576,-0.16,-3.1,8.2
12.603,-0.9,0.16,6.12
12.606,-0.16,1.1,6.59
12.628,-1.02,0.59,5.49
12.662,-1.1,0.47,6.16
12.697,-3.61,-0.31,14.04
12.728,0.47,-3.61,15.14
12.761,-2.82,4.71,12.55
12.795,-2.24,1.61,14.51
12.829,-3.57,-2.24,13.96
12.863,-8.08,3.06,6.2
12.897,-5.1,-0.86,11.06
12.932,-0.55,-8.24,16.91
12.966,-1.18,-3.73,14.04
12.985,-3.26,2.63,5.65
13.014,-2,-0.47,6.47
13.046,-0.43,-1.02,4
13.08,0.47,-1.29,4.35
13.116,1.26,-2.82,5.81
13.149,1.73,-0.75,5.96
13.183,3.84,-0.08,7.49
13.219,3.53,-0.78,12.16
13.257,0.24,0.31,17.93
13.286,8,-7.22,14.63
13.302,4.28,-4.71,14.67
13.332,-1.26,-1.14,12.47
13.365,-5.88,-9.3,14.67
13.399,-3.14,-1.02,11.1
13.431,-5.06,4,10.43
13.469,-1.77,-2.43,8.67
13.504,-1.37,-3.96,10.9
13.533,-1.33,-1.1,5.92
13.559,-1.29,0.9,4.86
13.605,-1.49,-0.43,7.26
13.633,-2.16,1.22,6.47
13.667,-2.94,0.27,6.9
13.701,-1.1,1.1,14.44
13.719,-2.04,1.06,13.26
13.766,-0.78,-1.26,13.45
13.783,-1.84,-0.31,13.22
13.808,-2.94,4.35,12.98
13.841,-3.1,-2.82,14.16
13.877,-9.57,1.18,7.37
13.922,-6.04,-1.33,13.42
13.953,-0.59,-7.34,16.83
13.981,-1.57,-5.06,15.42
14.014,-3.61,3.8,6.35
14.047,0.2,-0.63,6
14.082,-0.67,-2.08,5.06
14.116,-0.16,-0.75,3.26
14.132,1.57,-3.02,4.86
14.168,0.98,-1.26,6.24
14.196,4.31,-1.18,8.12
14.269,3.88,-1.29,12.04
14.338,1.14,-1.1,19.22
14.405,-1.1,-1.26,15.77
14.433,8.12,-3.8,11.3
14.457,0.39,0.08,12.43
14.483,-2.16,-0.43,8.12
14.519,-3.22,-4.98,11.41
14.557,-1.33,-2.08,8.67
14.587,-1.37,1.33,5.18
15.054,-1.57,-0.04,5.88
15.551,-1.53,0.39,8.83
15.585,-0.98,0.35,7.49
15.59,-0.24,0.43,8.51
15.597,-0.3,1.96,5.06
15.61,-0.27,0.67,4.59
15.63,-1.57,0.24,6.12
15.666,-0.94,-1.18,9.22
15.7,0.2,0.63,8.94
15.739,-1.02,1.06,6.67
15.768,-2.28,0.39,9.92
15.802,-3.61,-0.9,14.79
15.837,-0.27,-3.06,14.71
15.87,-3.57,4.47,10.98
15.892,-4.08,-3.69,17.1
15.911,-10.16,1.18,12.59
15.944,-7.88,0.98,10.94
15.979,0.24,-7.3,11.69
16.011,-0.98,-6,14.2
16.046,-1.18,0.08,12.55
16.12,-2.31,1.8,7.14
16.188,-0.59,-2.55,6.71
16.323,-1.06,-1.69,4.86
16.345,0.35,-1.69,5.81
16.347,1.73,-2.16,5.53
16.361,5.41,-1.57,7.73
16.362,3.33,-0.98,12.87
16.376,11.26,-6.86,13.69
16.403,5.02,-0.67,11.85
16.437,-13.85,-5.65,20.01
16.47,-2.98,-5.84,9.45
16.507,0.82,1.92,8.98
16.537,-1.73,1.06,10.71
16.572,-3.53,-2.08,10.63
16.604,-0.31,-1.65,7.81
16.639,-1.92,1.69,5.49
16.672,-1.06,1.65,7.49
16.695,-2.59,0.86,10.04
16.718,-4.79,-1.26,9.26
16.768,-2.71,0.9,9.81
16.799,-0.31,0.51,10.63
16.823,1.57,0,12.51
16.844,1.14,-1.02,16.12
16.879,1.73,0.08,14.63
16.92,-4.79,1.02,11.85
16.948,-6.24,5.3,11.18
16.988,-4.9,-5.57,11.18
17.018,-3.22,-3.69,13.85
17.051,-3.26,-1.8,13.38
17.085,-2.94,-2.04,9.77
17.119,-1.1,-1.1,7.81
17.139,-0.08,-1.92,7.81
17.166,-1.14,-0.71,6.86
17.205,0.24,-1.22,6.04
17.238,0.86,-1.92,5.84
17.267,1.18,-2.28,5.88
17.312,1.73,-2.35,5.3
17.346,2.51,-2.47,6.08
17.375,3.02,-1.45,5.81
17.412,4,0.08,9.02
17.442,2.04,0.16,16.51
17.474,2.9,-3.73,15.85
17.496,4.47,-6.83,11.85
17.538,-0.78,-1.41,17.18
17.562,-4.63,-9.1,13.1
17.594,-2.28,-1.57,10.63
17.622,2.63,-0.16,6.71
17.66,-2.59,-0.27,10.59
17.695,-2,-3.33,17.1
17.72,0.2,-2.71,8.04
17.762,-1.14,-0.27,5.22
17.788,-1.57,-0.08,7.65
17.821,-1.14,-0.16,6.39
17.855,-0.43,0.16,8.24
17.876,-0.51,0.24,7.3
17.911,-1.57,1.18,10.16
17.972,-2.67,0.63,11.69
18.04,-0.43,-1.69,12.36
18.107,-2.47,1.06,11.89
18.154,-2,1.14,12.2
18.156,-3.8,-3.49,13.85
18.169,-1.73,-7.61,17.18
18.188,-3.65,-3.69,16.55
18.227,-1.18,1.77,7.88
18.258,-0.75,0.71,7.18
18.294,-0.94,-3.26,6.79
18.323,0.12,-2.75,5.69
18.36,0.47,-1.88,5.3
18.411,1.77,-1.33,5.3
18.442,2.71,-1.37,4.43
18.465,3.22,1.61,6.55
18.489,3.49,0.12,14.95
18.528,-2.12,-3.65,19.57
18.558,7.88,-5.26,14.44
18.589,3.92,-2.82,15.22
18.606,-5.88,-8.32,14.95
18.637,-1.41,-3.3,7.65
18.678,-2.24,0.08,9.77
18.726,-1.65,-0.67,12.12
18.762,-2.39,-1.69,12.16
18.792,-0.16,-2.31,8.24
18.811,-1.65,0.04,5.61
18.84,-2.39,0.75,7.34
18.875,-1.65,-0.9,7.49
18.905,-1.92,-0.39,8.43
18.942,-0.75,-0.12,7.65
18.974,-1.49,0.55,10.43
18.993,-2.16,1.22,11.85
19.034,-0.51,-3.41,14.28
19.067,-2.28,1.92,12.94
19.109,-2.43,2.67,13.49
19.14,-5.61,-4.51,16.24
19.169,-8.12,2.71,8.63
19.188,-0.39,-2.82,11.38
19.216,-0.94,-5.92,14.2
19.25,-1.92,-2.82,15.42
19.279,-2.51,2.12,7.92
19.312,0.63,-1.73,7.18
19.346,-0.67,-2.31,5.61
19.378,0.63,-1.18,5.14
19.402,1.57,-1.57,5.61
19.44,2.16,-2.59,5.33
19.475,1.8,0.12,5.61
19.517,5.14,0.12,9.45
19.547,3.8,-2.9,17.89
19.582,-2.47,-3.22,19.38
19.612,6.86,-6,15.57
19.648,-8.59,-3.3,17.26
19.677,-0.16,-6.08,8.24
19.714,-1.49,-0.12,10.36
19.749,-2.47,1.02,11.41
19.771,-1.18,-1.49,9.57
19.787,-1.45,-2.35,10.08
19.873,-2.08,-0.35,6.32
19.919,-1.92,0.43,5.92
19.989,-2.16,-1.14,8.55
20.038,-0.31,0.47,5.96
20.074,-1.14,0.98,6.83
20.099,-2,2.55,13.85
20.117,-1.92,1.33,13.96
20.149,-4.94,-2.51,12.12
20.179,-6.71,1.8,6.32
20.213,-7.18,-2.63,14.32
20.243,-0.75,-6.08,18.83
20.275,-3.06,-3.37,14.12
20.321,-2.9,1.53,7.57
20.356,0.08,-1.22,6.59
20.386,0.27,-2.39,4.71
20.422,0.43,-1.69,3.96
20.454,1.49,-2.43,5.06
20.49,1.26,-0.94,5.73
20.525,4.98,-1.26,6.79
20.55,4.35,-1.77,11.3
20.583,0.16,-1.22,20.01
21.053,11.22,-5.96,14
21.549,6.08,2.51,11.41
21.552,-9.49,-4.9,13.49
21.558,-0.82,-12,7.73
21.585,-1.14,0.78,9.14
21.603,-2.67,0.94,20.01
21.631,8.43,-5.14,12.87
21.706,4.75,-1.8,13.61
21.767,-8.87,-7.22,16.71
21.835,0.71,-7.49,7.26
21.886,-0.82,0.16,10.32
21.917,-3.06,1.57,11.45
21.919,-2.35,-1.26,8.87
21.922,-0.43,-1.88,8.04
21.924,-0.59,0.31,4.47
21.925,-1.96,0.08,6.12
21.954,-1.61,0,6.63
21.98,-0.51,0.71,9.38
22.01,-1.1,1.02,9.96
22.042,-0.39,1.8,9.22
22.076,-1.26,-1.53,11.73
22.111,-0.51,-3.88,16.75
22.144,-1.92,3.14,13.42
22.182,-3.37,2.94,14.24
22.213,-6.9,0.82,12.59
22.244,-7.06,2.2,7.65
22.28,-4.39,-4.28,12.36
22.308,-1.22,-6.9,15.26
22.339,-2.47,-3.26,13.42
22.375,-3.49,2.79,6.16
22.391,0.12,-1.61,7.1
22.417,-0.78,-2.16,5.61
22.456,1.41,-2.24,5.3
22.484,1.14,-2.31,5.69
22.519,2.47,-2.59,6.32
22.551,4.43,0.16,6.24
22.585,4.35,-0.55,11.92
22.621,-1.18,0.47,20.01
22.657,5.57,-3.92,14.12
22.693,5.26,-3.06,13.34
22.71,-8.47,-2.67,16.08
22.752,-0.82,-6.32,8.71
22.786,1.37,-0.82,11.18
22.808,-3.33,1.92,10.4
22.835,0.51,-2.04,7.49
22.869,-0.71,-2.75,9.73
22.902,-0.43,-0.55,6.79
22.947,-1.92,1.57,5.06
22.984,0,-0.98,7.18
23.013,-0.39,0.71,8.59
23.043,0.2,1.06,7.14
23.08,-2.04,0.12,9.41
23.111,-3.41,-1.02,12.08
23.128,-0.2,-4.35,14.51
23.158,-2.55,2.47,12.91
23.187,-1.73,0.39,14.71
23.228,-4.9,-0.08,13.89
23.261,-7.85,2.67,8.04
23.288,-2.94,-3.69,10.43
23.324,-0.43,-6.98,15.18
23.356,-2.12,-4.24,14.95
23.395,-3.92,3.37,6.67
23.429,0.59,-1.1,6
23.458,0.55,-1.49,5.69
23.492,2,-1.45,5.22
23.563,1.96,-2.86,5.3
23.63,1.49,-2.67,6.83
23.698,4.86,-0.08,6.32
23.725,5.1,-0.31,11.38
23.753,0.35,-2.63,16.71
23.776,10.51,-4.9,13.57
23.808,1.14,2.71,8.08
23.839,-2.55,2.04,10.08
23.87,-1.65,-3.41,9.89
23.905,-0.82,-1.73,9.34
23.936,-0.55,0.39,4.04
23.969,-2.31,0.59,5.69
24.009,0.51,-1.22,6.94
24.036,-0.51,0.94,7.37
24.066,-1.33,0.86,6.63
24.089,-0.98,0.31,9.22
24.118,-2.67,0.2,13.3
24.152,0.24,-3.02,13.14
24.188,-2.67,3.18,11.53
24.216,-1.73,1.61,13.42
24.258,-4.47,-3.06,14.79
24.288,-8.67,1.77,6.47
24.317,-5.37,0.94,12.4
24.337,-0.94,-4.55,16.2
24.374,-0.31,-1.88,15.61
24.404,-3.02,2.2,9.34
24.431,-0.24,-1.92,6.63
24.467,-1.18,-2.63,5.22
24.501,-0.86,-1.92,4.24
24.537,-0.08,-1.77,5.26
24.57,0.71,-1.49,5.73
24.604,2.79,-1.96,6.04
24.643,4.82,-1.84,9.41
24.688,2.55,-0.67,14.04
24.69,-6.55,-2.86,17.26
24.724,12.16,-5.77,13.38
24.753,-0.31,3.96,12.43
24.783,-5.61,-5.41,16.08
24.818,-1.88,-7.53,14.32
24.857,-3.61,3.22,9.18
24.9,-2.47,1.1,11.61
24.928,-1.65,-5.18,11.06
24.961,-1.26,-3.33,9.45
24.987,-0.63,0.86,5.88
25.023,-1.77,1.02,7.61
25.078,0.75,1.37,4.98
25.11,-0.82,0.55,6.55
25.131,-3.33,-0.31,9.06
25.163,-0.47,-0.04,11.85
25.192,-1.41,0.59,12.32
25.221,-0.12,-0.55,11.92
25.25,-2.71,0.59,12.2
25.27,-2.43,2.43,12
25.302,-5.02,-2.24,16
25.335,-9.49,3.45,10.94
25.372,0.16,-5.65,10.51
25.432,-2.2,-3.41,12.36
25.501,0.39,-2.28,16.59
25.57,-3.96,3.14,10.59
25.61,-0.59,-1.73,7.41
25.64,-1.57,-1.53,6.28
25.641,-2.55,-0.43,5.49
25.659,0.63,-1.84,6.04
25.66,1.53,-2.75,7.06
25.705,3.3,-2.94,8.67
25.738,4.59,0,12.24
25.77,0.27,0.55,16.48
25.807,7.34,-3.26,12.47
25.824,6,3.26,13.38
25.856,-3.88,-5.45,13.93
25.89,-0.78,-12.2,14.59
25.921,-2.98,3.26,8.16
25.955,-4.35,3.45,10.79
25.988,-2.08,-3.45,9.14
26.023,-0.35,-4.24,12.91
26.058,1.14,-2.43,9.96
26.092,-2.63,2.2,5.69
26.125,-0.78,-0.04,9.22
26.127,-1.53,-0.04,8.47
26.18,0.71,-0.24,7.41
26.205,1.26,0.43,7.22
26.238,-1.61,0.24,7.3
26.267,-3.8,-1.26,9.1
26.3,-1.8,-4.82,15.69
26.333,-1.57,2.16,11.49
26.366,-4,0.86,15.1
26.401,-8.08,1.18,14.59
26.436,-7.81,0.75,10.51
26.485,0.63,-5.73,9.96
26.486,-1.33,-2.43,13.3
26.523,-0.24,0.39,16.28
26.558,-3.73,2.67,8.63
27.035,-1.77,-1.92,7.18
27.534,-1.65,-1.53,6.67
27.574,-0.47,-2.55,5.49
27.597,-3.53,-1.69,9.45
27.616,-2.04,-0.67,7.14
27.647,-0.51,-2.47,5.61
27.684,0.16,-3.18,5.57
27.716,-0.59,-1.69,5.02
27.746,0.2,-1.96,5.57
27.764,1.29,-1.53,6.08
27.794,2.94,-2.24,7.45
27.826,4.24,-1.53,10.59
27.857,2.55,-2.24,16.79
27.889,6.35,-3.61,13.81
27.922,4.63,-1.45,14.67
27.969,-2.28,-0.86,16.99
27.994,4.75,-9.34,6.47
28.03,-0.98,-1.73,7.22
28.06,-2.59,1.69,11.49
28.094,0.27,-0.2,11.85
28.128,-2.08,-2.63,10.55
28.16,-0.9,-1.88,7.69
28.194,-0.75,0.04,6
28.228,-2.28,1.1,7.81
28.247,-1.18,0.51,8.39
28.291,-0.39,-0.55,6.75
28.329,-0.39,0,7.18
28.368,-1.33,-0.43,11.14
28.405,-0.24,-1.45,12.91
28.44,-1.14,0.24,12.2
28.462,-2.43,3.22,11.57
28.463,-4.86,0.67,14.87
28.499,-9.96,0.12,13.18
28.539,-8.32,3.14,11.61
28.562,-2.51,-5.06,12.24
28.596,-1.02,-3.33,12.24
28.629,-2.51,-0.59,13.53
28.66,-2.55,-0.55,8.08
28.694,-0.27,-3.45,8
28.726,-1.8,-0.31,7.37
28.769,-0.9,-1.41,7.06
28.793,-1.22,-2.75,7.02
28.826,-1.06,-2.55,5.69
28.86,0.47,-3.3,6.59
28.896,1.69,-2.71,10.87
28.93,4.55,-0.16,13.06
28.964,0.63,0.24,14.95
28.996,6.79,-0.35,11.57
29.028,5.06,0.51,13.34
29.059,-1.49,-4.59,15.73
29.128,-0.35,-10.36,7.34
29.197,-3.53,0.35,9.53
29.265,-1.57,-0.82,10.71
29.318,-2.63,-2.86,11.02
29.345,-0.39,0.86,9.81
29.346,-2.08,-1.02,9.65
29.347,-1.53,-0.63,6.98
29.383,-1.77,0.47,8.71
29.424,-0.39,0.39,11.02
29.444,-0.08,-0.59,12.79
29.48,-1.14,-1.02,12.67
29.502,-1.57,2.43,13.02
29.543,-2.51,2.08,11.73
29.564,-9.06,1.02,10.32
29.59,-4.47,-0.59,10.94
29.624,-1.77,-1.61,13.77
29.655,-2.47,-2.28,12.87
29.687,-2.08,-1.61,12.98
29.719,-2.79,-0.51,8.28
29.752,-1.22,-2,6.75
29.79,-1.26,-3.57,6.63
29.824,-2.2,-1.1,7.22
29.856,0.35,-2.67,7.53
29.89,-0.35,-3.92,7.69
29.922,1.02,-3.26,7.92
29.954,4.59,-1.1,11.18
29.974,3.18,0.86,13.02
30.008,-3.92,-0.78,16.75
30.045,6.71,-3.84,12.2
30.085,5.18,1.14,9.38
30.107,-1.26,-2.67,12.28
30.145,-3.37,-9.73,9.65
30.18,-2.55,0.86,15.97
30.212,3.69,0.39,6.55
30.251,-0.9,-0.2,7.3
30.271,-3.8,-0.78,12.51
30.307,-1.02,-0.39,8.98
30.338,-1.22,0.43,7.1
30.358,-1.96,-0.27,8.08
30.387,-2.08,0.35,9.14
30.424,-0.82,-0.35,8.28
30.461,0,-0.39,8.67
30.5,-2.31,0.39,9.81
30.522,-1.61,-2.2,12
30.56,-0.82,-0.08,13.22
30.589,-1.8,1.53,12.59
30.62,-1.69,1.33,11.14
30.655,-9.41,1.26,7.77
30.693,-4.9,2.2,13.22
30.732,0.04,-2.86,14.98
30.757,-2.79,-2.12,13.96
30.796,-1.92,-2.59,11.77
30.835,-2.94,1.06,6.16
30.836,-1.37,-2.75,6.86
30.876,-2.12,-2.35,6.04
30.92,-1.26,-1.57,7.14
30.952,-0.08,-2.35,7.34
31.013,0.59,-2.51,7.88
31.04,2.39,-2.75,6.79
31.087,3.37,1.06,10.9
31.172,2.2,2.55,14.08
31.237,5.22,-3.96,12.28
31.24,7.45,-2.12,13.65
31.243,-4.98,-8.67,18.67
31.269,-2.24,4.04,6.75
31.293,-0.31,-2.16,8.36
31.33,-2.94,-5.14,12.24
31.353,-1.49,-2.12,9.41
31.389,-0.35,0.47,6.59
31.428,-0.9,1.65,6.16
31.452,0.35,0.2,7.81
31.495,0.47,-0.12,8.04
31.517,-1.92,0.43,5.69
31.558,-2.9,-0.35,9.34
31.602,-1.77,-0.82,12.94
31.639,-0.63,-1.61,13.26
31.641,-2.71,1.14,10.79
31.681,-3.26,2.86,12.83
31.702,-4.63,-3.57,16.79
31.744,-10,2.12,13.73
31.79,0.08,-8.63,9.22
31.814,-1.41,-7.18,13.14
31.838,-0.82,-0.94,16.28
31.88,-1.61,1.84,9.65
31.901,-1.1,-1.29,6.83
31.939,0.47,-2,5.77
31.96,1.41,-2.39,5.14
31.999,1.45,-2.04,7.14
32.038,1.84,-1.45,4.35
32.079,2.47,-0.75,4.63
32.103,6.08,0.67,8.16
32.147,3.14,-0.39,17.1
32.149,1.53,-4.98,19.06
32.205,7.3,-5.06,14.16
32.243,7.73,-2.04,9.1
32.268,-8.75,-9.77,10.83
32.309,-0.59,-3.57,19.97
32.332,1.73,0.35,6.59
32.355,-6.43,1.18,6.08
32.391,0.31,-3.02,10.71
32.414,-1.69,-1.29,11.41
32.456,-0.86,0.24,6.39
32.497,-2.28,-0.27,6.67
32.52,-1.29,-0.82,7.69
32.561,-0.39,0.82,7.1
33.012,-1.92,1.1,6.86
33.523,-1.18,1.49,9.92
33.565,-3.57,-0.39,11.81
33.568,-2,-0.24,7.92
33.61,-0.55,0.43,7.53
33.649,-0.98,0.55,7.65
33.696,-1.22,0.86,9.14
33.719,-3.26,0.24,12.2
33.758,-1.18,-2.98,13.38
33.78,-1.69,2.16,12.71
33.807,-1.41,2.47,12.47
33.844,-3.22,-2.79,14.67
33.866,-8.59,-0.31,8
33.905,-4.94,-1.33,12.36
33.928,0.71,-6,16.08
33.965,-3.88,-5.26,15.49
34.01,-2.47,1.41,8.79
34.049,-0.9,0.75,6.35
34.051,0.24,-2.71,6.16
34.1,0.39,-1.84,4.43
34.142,1.45,-1.37,5.3
34.166,1.8,-2.31,5.73
34.206,1.69,-2,4.35
34.229,5.14,0.12,7.73
34.273,2.82,-1.49,16.16
34.301,-1.8,0.04,20.01
34.346,8.79,-5.14,13.14
34.366,7.92,-0.71,9.34
34.386,-7.92,-10.71,15.77
34.421,-0.59,-6.75,12
34.481,3.18,1.69,6.51
37.97,-1.84,0.55,10.59
37.972,-3.69,-3.02,12.59
37.974,-1.26,-2.39,9.73
37.976,-0.39,-0.12,4.28
37.977,-0.86,0.67,8.04
37.979,0.24,0.55,6.32
37.98,-2.43,1.18,9.34
37.981,-2.75,-2.55,14.16
37.982,-0.31,-1.88,13.89
37.983,-2.55,5.06,12.04
37.984,-3.33,-1.8,15.57
37.986,-6.67,0.35,15.81
37.987,-7.81,0.86,10.12
37.988,-1.73,-6.16,11.02
37.989,-0.51,-5.33,16.28
37.99,-1.8,0.08,11.02
37.991,-1.53,1.33,5.41
37.992,-0.51,-1.26,6.71
37.994,-0.43,-1.84,5.1
37.995,0.9,-2.63,5.02
37.996,1.41,-2.24,6.32
37.997,2.16,-0.71,5.73
37.998,4.31,-0.67,6.79
38,4.24,-0.75,11.38
38.001,0.2,-2.35,17.77
38.002,9.34,-4.12,14.47
38.003,6.71,-0.51,10.83
38.004,-12.67,-4.16,18.75
38.008,0.43,-8.98,12.04
38.01,-1.73,2.24,7.14
38.011,-0.78,1.69,13.89
38.013,-3.57,-4.08,12.32
38.014,1.02,-5.06,10.87
38.015,-0.71,-0.71,5.18
38.016,-0.71,0.31,6.32
38.018,-2.79,0.82,7.3
38.019,-2.55,0.55,7.92
38.02,-1.8,0.27,3.22
38.021,-0.86,0.55,8.67
38.022,-1.96,1.14,12.98
38.023,-2.43,0.9,12.71
38.024,-1.06,-1.45,12.98
38.025,-2.67,4.79,11.53
38.026,-1.41,-3.26,13.57
38.028,-10.12,3.14,9.02
38.029,-7.88,-2.9,13.53
38.03,-0.39,-8.47,17.93
38.031,-2.08,-3.88,16
38.032,-3.3,3.77,9.89
38.033,-1.8,-0.08,6.39
38.034,-1.22,-2.59,6.2
38.035,-1.1,-2.51,3.77
38.036,0.04,-2.35,6.39
38.037,0.59,-2.9,5.41
38.038,1.49,-2,4.47
38.039,3.57,-0.63,7.57
38.04,3.69,0.47,13.14
38.041,0.04,-0.75,16.75
38.042,7.45,-5.45,12.94
38.043,4.28,-0.31,10.47
38.044,-6.2,-6.35,15.89
38.045,-2.59,-9.73,15.77
38.046,-0.71,4.47,10.08
38.048,-3.06,3.77,9.41
38.049,-0.27,-5.02,10.12
38.05,-1.22,-6.24,10.94
38.051,-1.29,-0.98,6.79
38.052,-3.26,1.69,5.84
38.054,-1.06,0.31,6.98
38.056,-1.65,-0.43,9.96
38.057,-2.35,-0.67,14.36
38.058,-1.14,-1.49,12.87
38.059,-2.79,3.33,13.77
38.06,-4.24,-3.49,14.91
38.062,-10.2,3.41,9.14
38.063,-5.45,-3.84,12.79
38.064,-2.86,-7.06,18.16
38.066,-0.43,-3.49,16.24
38.067,-4.2,3.69,8.47
38.068,-2.2,-1.45,7.06
38.069,-1.06,-2.82,4.47
38.071,1.45,-2.86,4.24
38.072,0.27,-2.55,6.12
38.073,1.02,-2.43,4.47
38.074,2.71,-0.39,5.02
38.076,4.39,0.43,9.41
38.077,0.94,-2.28,16.63
38.079,9.49,-5.61,16.28
38.08,6.51,0.43,9.53
38.081,-7.77,-3.22,17.26
38.083,-2.31,-9.89,16.04
38.084,0.94,4.31,9.65
38.085,-5.33,3.14,9.53
38.087,-0.59,-5.61,9.38
38.088,-1.53,-5.41,13.18
38.089,-1.22,0,6.86
38.092,-1.92,1.96,5.45
38.093,0.51,0.67,5.41
38.094,-0.55,1.84,7.81
38.096,1.26,0.31,5.26
38.097,-1.14,1.22,5.77
38.099,-2.9,-0.59,9.65
38.1,-1.06,-3.22,15.34
38.101,-1.8,2.86,12.32
38.18,-0.78,2.79,14.47
38.181,-3.65,-1.33,14.12
38.215,-10.28,2.63,7.3
38.216,-6.2,-1.53,13.06
38.218,-1.57,-6.83,17.77
38.219,-0.67,-1.61,6.86
38.24,-1.49,-2.63,5.61
38.269,-0.9,-1.37,3.53
38.305,1.14,-3.02,4.51
38.326,0.47,-3.26,5.88
38.352,2.04,-1.96,5.61
38.402,4.47,-0.9,10.55
38.404,1.14,-0.94,16.87
38.447,-5.3,-0.78,17.38
38.48,8.08,-4.9,13.3
38.511,5.96,2.39,10.24
38.534,-4.51,-8,13.38
38.996,-2,-8.2,14.51
39.496,-1.45,3.8,7.18
39.531,-1.69,-0.08,8.59
39.536,-3.26,-4.98,12.2
39.543,-1.1,-3.69,15.46
39.574,5.18,1.57,9.14
39.598,-3.1,-5.22,14.36
39.623,-2.04,-6.28,17.22
39.667,-1.45,5.57,9.18
39.717,-4.43,3.06,8.63
39.748,-0.16,-4.31,8.75
39.777,-2.16,-4.71,13.38
39.803,-0.94,-1.14,8.32
39.852,-0.86,1.92,7.1
39.854,-1.37,1.84,7.49
39.879,-0.51,0.43,7.77
39.91,1.26,-0.71,7.57
39.938,0.43,-0.94,8.98
39.981,0.2,-1.41,9.45
40.024,-0.59,-1.69,11.22
40.026,-2.31,3.14,11.06
40.074,-0.35,1.37,12.16
40.077,-7.49,-3.41,12.83
40.134,-6.04,-1.26,13.34
40.177,0.55,-4.98,11.73
40.204,-0.35,-2.43,12.4
40.23,0,0.75,16.4
40.279,-1.73,3.22,11.3
40.306,-0.78,-2.39,8
40.331,-0.31,-3.02,6.9
40.384,0.31,-0.86,6.28
40.41,0.43,-1.22,6.79
40.464,1.61,-2.08,6.43
40.465,1.73,-2.51,6.98
40.511,3.84,-1.88,8.94
40.535,2.67,-0.71,11.92
40.56,-6.08,-3.06,14.04
40.606,6.35,-3.61,12.51
40.63,5.65,-0.04,15.06
40.631,-2.86,-2.75,16.79
40.673,3.22,-6.35,8.2
40.699,0.63,1.02,7.96
40.724,-3.65,1.77,10.67
40.759,-0.63,-2.55,8.63
40.784,-0.27,-3.37,10.24
40.83,0.71,-1.18,6.59
40.857,-1.77,0.35,8.51
40.891,-1.14,1.37,8.2
40.954,-1.37,1.41,7.3
40.982,-0.12,-0.47,7.73
41.026,0,-0.31,8.79
41.051,-1.73,0.71,10.51
41.075,-1.69,-0.35,10.36
41.101,-0.39,-0.75,12.71
41.153,-1.53,0.63,12.59
41.155,-4.28,1.53,14.12
41.181,-4.75,1.8,14.12
41.227,-10.71,3.18,12.75
41.256,0.9,-6.04,6.94
41.283,-1.65,-3.33,12.67
41.315,-1.18,-0.59,17.3
41.347,-2.35,1.77,8.51
41.393,0.55,-1.14,6.86
41.395,-0.55,-1.57,5.53
41.46,1.1,-2.47,5.3
41.506,1.77,-1.45,5.1
41.507,1.88,-1.22,6.2
41.532,1.77,-1.77,6.16
41.576,3.8,-1.84,6.63
41.603,3.33,-0.67,9.57
41.629,2.43,0.24,12.28
41.682,0.04,-2.28,11.34
41.708,5.37,-6.59,11.77
41.735,3.61,-1.45,8.08
41.761,-8.59,-2.79,17.57
41.786,-8.36,-0.94,13.85
41.827,4.67,-0.98,15.53
41.856,-3.26,3.41,18.79
41.913,0.55,-1.88,15.93
41.96,-1.14,-1.49,10.9
41.963,-1.37,-2.63,10.16
41.988,-1.29,-0.39,7.92
42.014,-1.88,0.98,4.24
42.042,-1.84,1.61,4.98
42.091,-1.02,-0.94,8.24
42.119,0,-2.12,11.69
42.147,-0.08,-3.92,12.12
42.191,-0.47,1.26,14.47
42.215,-0.24,5.02,10.32
42.243,-6.2,-0.31,12.2
42.29,-8.08,5.37,12.63
42.316,-3.37,-5.14,15.69
42.345,-4.2,-5.33,16.24
42.396,-1.41,-2.63,15.57
42.421,-3.02,2.67,8.32
42.472,-0.78,-0.71,5.33
42.474,-1.41,-2.28,5.73
42.499,-0.08,-1.45,4.31
42.527,1.33,-1.77,4.9
42.567,1.14,-1.61,5.73
42.596,2.67,-2.04,5.37
42.632,4.43,-1.77,9.57
42.66,4.98,-1.06,15.61
42.713,-1.61,1.22,16.91
42.716,6.51,-3.84,9.96
42.762,4.59,-1.69,14
42.789,-10.51,-10.55,20.01
42.818,-2.24,-1.92,9.02
42.859,-0.12,2.47,5.88
42.886,-0.27,-0.94,11.81
42.914,-4.16,-4.75,12.63
42.963,0.12,-2.59,10.55
42.99,-1.8,1.26,3.8
43.015,-2.08,0.16,7.73
43.041,-1.29,-0.12,8.24
43.073,-0.51,0.59,6.94
43.12,0.2,0.51,5.1
43.148,-1.69,0.16,7.22
43.179,-3.61,-0.12,13.06
43.227,-1.26,-1.96,14.36
43.274,-2.2,3.41,12.32
43.3,-2.24,3.49,13.3
43.302,-4.59,-2.79,15.77
43.332,-9.73,1.92,8.75
43.365,-4.51,-1.02,11.85
43.391,-0.67,-6.9,15.02
43.443,-1.06,-5.1,16.51
43.47,-2.82,1.26,6.35
43.5,-1.61,-0.59,6.98
43.534,-1.18,-1.84,5.61
43.562,-0.12,-1.69,3.96
43.596,1.22,-3.33,5.22
43.622,1.22,-3.1,6.67
43.659,2.51,-1.49,5.61
43.691,4.86,-0.51,8.16
43.75,0.9,-0.51,16.48
43.754,3.26,-2.08,15.57
43.78,6.24,-3.3,12.71
43.828,2.67,0.43,13.3
43.858,-6.86,-13.34,18.12
43.906,0.08,-2.55,9.89
43.933,-0.71,2.47,7.61
43.963,0.67,0.27,11.89
43.992,-3.06,-3.65,14.04
43.993,-0.31,-3.02,8.36
44.041,-1.41,-0.67,5.26
44.092,-2,-0.31,5.53
44.095,-1.57,0.86,7.41
44.144,-0.67,1.37,8.28
44.172,1.57,0.43,5.14
44.22,-2.12,1.14,9.77
44.247,-2.98,0.51,13.89
44.301,-0.43,-1.37,14.24
44.302,-1.53,2.31,11.96
44.349,-2.08,2.51,13.57
44.379,-4.98,-3.41,13.85
44.408,-9.14,1.61,7.02
44.435,-7.57,1.06,13.42
44.494,-2.04,-7.14,16.36
44.495,-1.02,-3.41,15.14
44.522,-3.02,2.82,7.37
44.571,-0.55,-0.86,5.61
44.982,-0.67,-2.71,5.06
45.51,-0.71,-1.8,3.57
45.98,0.2,-2.79,7.77
46.489,-1.57,-0.12,4.79
46.526,-2.08,0.86,14.87
47.482,-0.12,-2.98,8.43
47.516,-2.98,-5.41,11.49
47.991,-2.35,-4.98,9.96
47.995,-0.71,-6.08,15.53
48.002,2.55,-0.31,18.71
48.033,-4.82,-11.92,14.59
48.08,4.71,2.55,10.67
48.111,-2.59,4.71,7.49
48.14,-0.16,-2.9,8.04
48.182,-1.77,-5.45,13.34
48.214,-0.51,-0.94,5.88
48.242,-1.02,0.35,5.45
48.287,-1.77,1.22,8.51
48.316,-0.43,0.9,8.32
48.319,-0.47,1.06,7.49
48.351,-2.35,0.24,8.67
48.388,-2.63,-0.2,10.63
48.426,-1.37,-2.51,14.32
48.463,-2.51,3.84,11.22
48.495,-1.8,1.06,14.87
48.531,-4.08,-2.35,14.04
48.565,-8.51,2.94,6.67
48.597,-4.71,0.04,12
48.627,-0.43,-6.63,17.18
48.662,-0.39,-3.06,15.81
48.705,-2.08,2.24,6.79
48.707,-0.35,-2.16,6.86
48.745,-1.88,-1.8,4.04
48.778,1.41,-2.47,5.3
48.809,0.67,-2.55,5.65
48.844,0.39,-2.82,5.02
48.873,2.9,-1.06,6.47
48.915,4.51,-0.75,10.79
48.917,2.63,-0.75,16.55
48.99,6.63,-4.16,15.18
49.02,6.86,-1.61,11.45
49.05,-4.47,-0.55,14.63
49.078,-2.86,-9.77,11.1
49.106,-3.18,-1.53,15.61
49.138,-2.04,4.24,9.26
49.172,-0.78,0.63,8.47
49.201,-1.73,-5.37,12.12
49.232,-0.55,-2.82,7.22
49.282,-1.33,0.43,5.77
49.284,-1.65,2.04,7.34
49.344,0.08,0.82,7.92
49.374,-0.47,0.75,8.47
49.405,-2.2,0.47,6.71
49.442,-2.35,0,10.59
49.472,-2,-0.86,13.3
49.503,-1.77,-1.06,13.34
49.538,-2.16,5.3,13.42
49.54,-2.31,-2.98,15.06
49.608,-5.3,0.98,12.36
49.682,-8.28,2.51,8.24
49.743,-2.35,-4.86,10.98
49.827,-1.65,-4.16,16.91
49.856,-0.9,1.26,13.69
49.889,-0.35,-1.14,3.77
49.891,1.53,-3.02,5.26
49.925,1.96,-2.31,5.84
49.957,5.22,-1.37,8
49.985,3.53,-0.04,12.28
50.017,1.65,0.31,17.77
50.049,9.61,-5.65,14.47
50.081,7.41,-0.27,10.79
50.114,-9.77,-3.45,16.91
50.116,-4.39,-10.51,13.81
50.147,0.9,2.94,6.98
50.178,-2.79,3.18,9.77
50.232,-0.63,-4.43,8.2
50.261,-0.39,-4.12,11.38
50.3,0.51,-0.86,5.49
50.336,-1.49,0.51,5.73
50.338,-1.61,0.63,10.04
50.407,-0.94,1.61,8.59
50.409,-0.51,0.78,6.12
50.436,-2.16,0.08,8.75
50.467,-2.2,-0.75,12.43
50.504,-1.22,-1.53,14.12
50.535,-2.12,1.22,11.89
50.571,-2,2.43,13.61
50.606,-2.79,-2.35,15.18
50.661,-8.98,0.98,8.28
50.664,-5.96,-1.02,12.04
50.693,1.49,-6.86,19.46
50.729,-0.78,-2.55,16.28
50.76,-1.65,3.41,8.12
50.821,-0.78,0,5.22
50.824,-0.39,-2.59,6.08
50.876,-0.43,-2.31,3.65
50.879,1.53,-3.02,5.57
50.908,1.65,-1.96,6.04
50.962,4.16,-0.43,6.9
50.995,4.98,-0.12,10.28
51.026,0.51,-0.12,18.36
51.06,5.81,-3.3,15.85
51.093,5.02,-4.04,16.12
51.125,-8.79,1.57,19.77
51.162,3.33,-5.45,5.49
51.196,-1.33,0.71,8.98
51.238,-0.63,1.33,14.79
51.241,-2.82,-2.94,8.83
51.273,0.47,-4.31,7.85
51.302,-1.49,-1.41,6.39
51.337,-2.08,0.98,6.43
51.368,-0.94,0.9,7.26
51.399,-1.22,0.35,9.92
51.457,-0.82,0.08,5.77
51.519,-2.67,0.08,9.14
51.564,-1.22,-0.82,12.71
51.601,0.63,-0.31,13.02
51.667,-2.43,2,10.47
51.67,-3.73,1.57,14.08
51.732,-0.27,-4.47,17.26
51.765,-1.8,1.41,11.65
51.799,-1.69,1.61,6.94
51.833,-1.61,-2.04,6.63
51.874,-0.55,-0.71,3.41
51.906,0.47,-3.3,4.47
51.946,1.37,-3.49,5.33
51.947,1.8,-1.73,6.32
51.982,5.92,-1.8,8.12
52.023,4.51,-0.98,12.55
52.058,-2.39,-0.39,18.71
52.099,9.73,-6.55,14.71
52.102,-2.31,-0.12,13.02
52.157,1.65,-10.51,11.1
52.16,-1.8,0.67,8.87
52.193,-1.45,2.04,7.77
52.229,0.24,-2.12,12.63
52.264,-3.65,-4.24,12.28
52.299,-0.86,-2.35,8.2
52.341,-1.77,0.47,5.3
52.38,-1.96,-0.31,7.49
52.418,-1.06,0.75,7.61
52.45,-1.1,1.29,7.69
52.486,-0.86,0.78,5.96
52.518,-2.35,-0.59,10.87
52.52,-2.51,-0.51,15.02
52.553,0.9,-2.43,12.59
52.584,-3.96,4.9,11.3
52.612,-4.2,-3.69,15.46
52.649,-10.12,1.29,9.22
52.678,-2.47,-0.71,9.57
52.716,-2.86,-5.69,14.98
52.753,-0.08,-4.16,18.2
52.794,-4.16,4.04,9.41
52.828,-0.67,-0.55,6.67
52.87,-1.33,-1.8,4.75
52.905,1.73,-2.94,4.24
52.91,1.06,-3.49,5.53
52.952,2.16,-2.9,5.1
52.984,3.49,1.18,5.69
53.023,5.84,-0.31,11.14
53.461,1.88,-0.67,15.34
53.971,4.79,-3.02,17.5
54.007,6.2,1.49,10.55
54.013,1.61,1.41,6.43
54.02,-2.47,0.04,9.14
54.058,-1.92,-1.77,14.28
54.097,-2.31,-0.94,17.42
54.134,8.94,-2.59,14.67
54.169,4.24,2.35,7.65
54.203,-2.63,-9.26,12.83
54.243,-6.94,-8.32,20.01
54.245,0.08,4.55,9.96
54.283,-0.08,-0.31,4.9
54.314,-1.49,-6.59,11.85
54.352,-0.86,-2.75,9.57
54.385,-0.67,1.22,5.49
54.42,-2.31,1.14,7.3
54.454,0.24,1.29,6.24
54.49,0.9,0.55,8.47
54.53,-1.45,1.02,7.37
54.571,-2.82,-1.06,9.22
54.573,-2.28,-1.14,13.81
54.574,-0.12,-1.65,13.85
54.617,-2.71,4.08,11.1
54.673,-2.86,1.73,14.63
54.704,-4.51,-2.08,13.61
54.738,-8,1.8,7.34
54.776,-0.47,-2.75,10.83
54.811,-1.1,-5.92,18.32
54.846,-0.9,0.55,13.34
54.89,-1.14,2.12,8.2
54.923,-0.31,-1.1,6.9
54.925,-0.71,-1.26,4.16
54.966,1.06,-2.94,4.35
55.006,2.2,-3.53,5.22
55.039,1.53,-0.94,5.53
55.041,4.79,-0.08,7.3
55.076,4.2,-0.2,12.63
55.112,0.82,-1.96,17.26
55.149,10.94,-5.18,14.51
55.21,5.61,0.55,11.1
55.275,-6.9,-4.24,19.02
55.343,0.94,-10.12,11.65
55.402,-1.33,2.47,6.75
55.454,-0.94,1.18,10.79
55.456,-2.55,-4.82,10.55
55.459,-0.59,-0.12,5.26
55.46,0.16,1.57,6.35
55.499,0.35,1.45,8.12
55.538,-2.31,-0.04,8.39
55.58,-1.1,-0.27,10.87
55.619,-2.04,0.08,11.96
55.654,-0.16,-1.96,12.51
55.656,-3.45,1.57,12.55
55.7,-4.98,-1.61,16.91
55.732,-9.57,1.8,17.65
55.778,-5.14,-0.24,8.43
55.817,-0.86,-6.35,6.55
55.854,1.22,-4.59,13.45
55.856,-1.14,0.86,13.06
55.902,-0.82,0.12,9.61
55.94,0.16,-1.69,6.08
55.942,0.39,-1.8,5.22
55.991,1.77,-2.94,5.69
56.031,2,-2.79,6.55
56.066,3.02,-1.1,5.14
56.1,5.26,-0.08,7.45
56.103,1.73,-0.08,13.38
56.139,-2,0.12,17.73
56.173,8.59,-4.86,13.45
56.219,4.39,-0.27,11.3
56.222,-7.57,-9.34,20.01
56.258,-3.18,-4.59,12.16
56.296,-0.47,2.2,7.14
56.359,-1.37,1.14,11.73
56.361,-2.2,-4.98,10.75
56.414,-0.16,-3.41,10.36
56.417,-0.39,0.86,4.55
56.481,-1.02,0.98,5.73
56.484,0.51,0.12,7.53
56.514,1.33,1.41,7.34
56.554,-2.12,1.18,6.94
56.591,-2.71,-0.31,8.63
56.628,-2.86,-1.22,12.94
56.666,-0.31,-2,14.47
56.7,-3.14,4.9,11.1
56.732,-2.2,0.04,14.98
56.772,-4.24,-1.29,14.04
56.807,-10.2,2.47,8.94
56.808,-2.82,-3.18,10.36
56.844,0.51,-6.98,16.79
56.881,-1.1,-2.9,14.83
56.922,-1.61,1.33,8.04
56.962,-0.98,-0.59,6.39
56.999,-0.55,-0.86,4.16
57.033,1.29,-3.02,4.63
57.095,2.04,-3.41,6.16
57.163,2.79,-2.04,6.28
57.164,4.86,-0.16,7.06
57.225,3.96,-0.12,11.34
57.286,-8.2,-0.94,19.5
57.288,10.28,-5.92,14.91
57.29,7.45,1.73,9.57
57.324,0.82,2.75,9.02
57.364,-4.35,3.77,8.9
57.413,-1.18,-3.77,7.77
57.415,-1.26,-3.1,9.45
57.462,-1.37,0.63,6.08
57.497,-1.84,0.47,7.77
57.499,0.31,1.41,6.63
57.538,0.51,1.53,8.12
57.583,-1.84,1.41,8.04
57.622,-2.39,-0.63,9.34
57.624,-2.04,-0.63,14.08
57.692,0,-2.35,13.69
57.728,-3.18,3.73,11.18
57.768,-1.37,-1.22,14.87
57.812,-4.79,-1.06,12.59
57.814,-8,3.41,7.3
57.849,-4.63,-1.69,12.71
57.886,0.51,-6.83,18.04
57.92,-1.57,-0.51,11.3
57.964,-1.8,1.61,6.08
58.002,-0.78,-1.06,5.41
58.004,-0.43,-1.84,4.2
58.038,1.77,-3.26,4.9
58.075,1.61,-2.47,6.16
58.114,3.45,-0.78,6.67
58.148,5.65,0.27,9.92
58.15,0.75,-0.24,13.93
58.187,-6.39,-1.14,18.87
58.224,7.73,-6.43,14.04
58.262,-1.41,1.33,14.47
58.301,-3.3,-9.85,12.08
58.342,-4.39,-1.45,18.91
58.377,0.86,3.57,8.12
58.414,-1.22,-2.12,8.47
58.416,-2.24,-4.71,12
58.462,-1.73,-1.14,7.53
58.498,-1.77,1.1,5.84
58.5,-0.08,-0.16,6.43
58.534,-1.65,0.59,7.06
58.568,-2.24,-0.08,7.37
58.607,-1.57,0.59,11.81
58.647,-1.88,1.61,12.71
58.68,-0.16,-0.16,13.1
58.682,-2.2,0,12.16
58.744,-3.53,2.71,13.57
58.746,-4.08,-3.96,14.63
58.783,-8.98,1.45,9.26
58.82,-2.28,-1.57,10.47
58.855,-1.65,-5.61,15.81
58.915,-0.27,-1.14,13.06
58.983,-1.49,1.65,7.49
58.985,-0.67,-1.45,7.53
58.986,-0.63,-1.57,4.16
59.957,1.14,-2.67,4.28
60.46,-1.41,1.26,4.86
60.462,-1.53,-0.35,9.06
60.98,0.75,0.04,7.34
61.443,-3.22,0.42,11.53
61.455,0.9,0.63,5.49
61.965,-1.84,1.77,9.61
62.456,-2.67,7,12.32
62.458,-1.33,1.06,5.65
62.46,-0.82,-0.04,7.22
62.51,-0.75,1.41,8.55
62.55,-0.98,0.63,6.39
62.592,-2.28,0.86,7.96
62.595,0.04,1.14,6.79
62.658,-1.22,1.22,8.16
62.73,-1.57,0.35,7.1
62.768,-1.02,0,10.98
62.837,-0.71,0.2,10.79
62.838,-2.16,-0.43,12.2
62.84,-2.75,-1.37,13.22
62.903,-6.55,2.47,11.57
62.905,-8.39,1.8,10.24
62.907,-0.35,-6.08,10.9
62.968,-0.82,-4.43,14.36
63.006,-0.31,0.9,14.28
63.043,-1.96,0.55,9.41
63.076,-0.67,-2,8.16
63.114,-0.98,-2.51,6.71
63.117,0.51,-2.43,6.51
63.15,0.55,-2.16,7.3
63.208,1.41,-1.8,6.9
63.247,1.8,-0.94,6
63.288,1.88,-0.51,7.92
63.29,1.37,0.47,11.89
63.327,2.16,-0.39,13.1
63.367,2,-2.55,12.63
63.368,4.98,-2.24,12.36
63.442,4.08,0.55,8.43
63.444,-0.71,-0.47,10.12
63.477,-5.77,-9.1,17.26
63.519,-4.51,-3.18,17.77
63.556,4.9,7.22,5.73
63.598,-4.2,2.16,7.26
63.637,-2.98,-7.02,13.06
63.64,-1.77,-6.94,10.32
63.683,-1.18,-0.9,11.45
63.719,-2.35,3.18,8.63
63.751,-1.02,0.67,9.85
63.78,-1.29,-0.78,9.38
63.808,-0.86,-0.9,9.85
63.841,-0.31,-0.78,10.12
63.842,-0.9,-0.08,10.2
63.888,-0.43,0.31,10.55
63.889,-0.75,-0.12,10
63.946,-0.12,-0.67,10.87
63.98,-0.27,-2.2,9.92
64.022,-0.82,-2.71,9.77
64.052,-3.26,-0.04,10.9
64.084,-3.06,-1.37,10.24
64.119,-1.69,-2.82,9.49
64.147,-1.33,-2.67,9.85
64.176,-1.57,-1.1,10.59
64.211,-1.22,-0.63,10.36
64.241,-0.78,-1.26,10.47
64.27,-1.1,-1.22,10.32
64.319,-1.29,-1.61,9.92
64.351,-1.06,-2,10.32
64.384,-0.94,-2,10.51
64.416,-0.9,-1.29,10.28
64.447,-1.02,-1.41,10.32
64.492,-0.9,-1.26,10.32
64.55,-0.98,-1.45,10.36
64.667,-0.94,-1.57,10.2
64.712,-1.14,-1.65,10.2
64.715,-0.94,-1.65,10.24
64.757,-0.86,-1.53,10.51
64.759,-0.9,-1.49,10.32
64.798,-0.82,-1.65,10.16
64.845,-0.86,-1.57,10.28
64.886,-0.9,-1.49,10.24
64.926,-0.78,-1.45,10.4
64.928,-0.78,-1.45,10.59
64.97,-0.75,-1.33,10.36
65.01,-0.63,-1.53,10.32
65.057,-0.63,-1.61,10.36
65.059,-0.71,-1.53,10.28
65.098,-0.75,-1.41,10.24
65.134,-0.86,-1.37,10.24
65.165,-0.82,-1.41,10.43
65.2,-0.59,-1.45,10.24
65.23,-0.63,-1.53,10.43
