NAME:,walk_3_1.csv,,
EXPERIMENT TIME:,25-05-22 18:08,,
ACTIVITY TYPE:,Walking,,
COUNT OF ACTUAL STEPS:,120,,
,,,
Time [sec],ACC X,ACC Y,ACC Z
0.024,-2.63,-0.82,7.53
0.125,-2.9,0.04,7.57
0.127,-3.88,-0.2,7.81
0.137,-1.29,-1.92,8.47
0.156,-2.82,-1.84,8.55
0.189,-2.75,-1.88,10.47
0.213,-3.3,-1.65,9.49
0.284,-5.26,-1.22,10.98
0.348,-4.79,-1.53,13.93
0.416,-2.9,-0.59,13.53
0.469,-8.51,0.55,15.26
0.496,-6.12,1.61,13.89
0.499,-5.1,-2.82,7.69
0.501,-2.51,-4.79,11.02
0.543,-3.06,-3.26,10.43
0.564,-2.63,-1.33,7.22
0.588,-3.06,-0.12,7.3
0.625,-0.71,-2.55,6
0.657,-0.12,-3.37,6.51
0.69,-0.2,-2.16,6.24
0.728,0.67,-2.43,6.94
0.761,0.24,-2.71,7.26
0.793,0.39,-1.49,7.34
0.825,0.67,-1.53,11.02
0.857,2.24,-2.16,11.77
0.894,2.2,-2.63,13.61
0.927,2.51,-5.73,14.51
0.96,2.08,-6.12,13.89
0.978,-0.67,-9.45,17.93
1.003,-4.43,-7.3,10.59
1.038,-1.88,-3.06,5.3
1.069,-3.22,-1.29,10.36
1.104,-1.1,-2.98,11.22
1.138,-3.61,-3.26,9.38
1.169,-4.35,-2.47,8.75
1.192,-0.98,-1.8,6.59
1.227,-2.47,0,6.12
1.299,-3.53,-0.04,7.69
1.368,-3.84,-1.37,8.08
1.394,-3.57,-1.37,8.94
1.417,-3.73,0.2,9.61
1.451,-4.39,-3.22,12.59
1.483,-4.59,-0.86,11.06
1.517,-4.2,0.86,12.43
1.551,-8,-2.43,16.79
1.587,-9.1,1.57,12.12
1.621,-8.24,1.69,7.41
1.653,-2.47,-5.18,7.53
1.689,-3.45,-6.59,13.14
1.724,-4.39,-2.75,14.4
1.758,-4.31,-1.02,8.94
1.777,-2.82,-1.53,5.96
1.799,0.63,-2.04,4.82
1.832,-0.47,-2.51,5.88
1.874,-0.94,-2.35,5.37
1.895,0.67,-2.75,6.67
1.928,1.14,-2.9,6.94
1.961,1.06,-3.8,7.85
1.994,0.98,-2.51,9.69
2.028,1.22,-0.47,13.96
2.064,-1.33,-3.22,16.51
2.139,4.63,-5.77,14
2.213,-1.45,-2.82,15.06
2.271,-4.55,-8.51,7.37
2.338,-3.61,-3.3,7.49
2.357,-1.41,-1.26,10.75
2.361,-1.26,-2.94,6.04
2.385,-2.94,-2.94,5.92
2.418,-3.73,-0.31,7.45
2.451,-2.86,-0.16,7.34
2.475,-1.57,-0.78,8.08
2.51,-1.37,-1.65,7.45
2.586,-2.63,-0.2,9.3
2.653,-2.86,-1.14,10.12
2.689,-5.06,-2.79,13.93
2.705,-2.55,0.59,12.67
2.707,-5.26,0.04,14.98
2.73,-7.85,-3.49,13.89
2.764,-9.89,3.49,7.14
2.796,-6.2,-2.55,12.08
2.833,-4.71,-8.08,12.32
2.864,-3.06,-4,12.4
2.898,-2.79,-0.59,8.51
2.935,-3.45,0.39,4.75
2.966,1.02,-2.79,3.73
2.999,0,-2.28,6.35
3.032,-0.31,-1.37,5.22
3.066,1.8,-2.86,6.63
3.103,1.77,-4.82,7.88
3.136,1.02,-2.2,8.43
3.167,2.51,-0.12,13.61
3.185,0.82,-2.16,17.65
3.23,2.86,-4.94,12.71
3.263,3.02,-5.33,13.73
3.284,-4.59,-3.96,12.63
3.305,-6.28,-11.69,10.67
3.338,-3.18,-3.96,10.28
3.372,-1.29,-0.27,9.57
3.405,-0.75,-0.75,8.39
3.442,-3.65,-0.94,9.65
3.475,-3.02,-2.28,7.81
3.517,-0.55,-2.16,4.31
3.544,-3.65,-0.27,7.85
3.58,-4.51,-0.2,8.2
3.611,-1.84,-0.98,6.59
3.643,-2.24,-0.63,6.43
3.678,-2.75,-0.16,9.38
3.711,-4.16,-1.33,12.75
3.737,-3.45,-3.14,13.3
3.754,-8.2,1.18,15.14
3.797,-6.28,1.65,15.3
3.866,-4.51,-2.98,12.63
3.935,-9.06,2.24,7.37
4.002,-5.22,0.71,9.96
4.067,-6.28,-5.3,11.96
4.08,-3.49,-6.71,14.59
4.139,-4.79,-0.27,8.63
4.184,-3.06,-0.51,3.84
4.2,1.8,-1.57,4
4.203,0.47,-3.22,5.1
4.206,2.12,-2.39,7.65
4.232,3.73,-2.75,13.85
4.288,-0.04,-1.69,18.75
4.307,3.61,-4.94,12.91
4.335,4.16,-4.94,13.53
4.364,0.12,-1.69,13.38
4.397,-6.79,-11.14,11.77
4.43,-4.08,-3.37,10.59
4.469,-0.94,0.08,8.28
4.487,-0.98,-1.53,8.94
4.521,-3.22,-3.26,10.28
4.554,-3.14,-3.02,8.63
4.591,-0.12,-0.82,3.65
4.624,-4.39,-0.43,6.86
4.657,-4.63,0.71,7.61
4.688,-1.61,-0.86,5.96
4.712,-2.47,-1.18,8.04
4.745,-3.92,0.04,10.71
4.78,-2.43,-1.53,10.75
4.811,-2.98,-4.24,14.32
4.848,-4.39,1.53,12.24
4.881,-5.41,0.08,15.73
4.914,-6.2,-4.79,14.08
4.948,-9.77,2.43,6.55
5.297,-4.98,-0.55,10.63
5.783,-3.49,-5.88,12.16
5.796,-5.77,-5.26,14.12
5.801,-3.41,-2.39,11.89
5.935,0.82,-3.22,18.01
5.995,-3.61,0.43,8.36
6.009,-3.3,0.39,10.4
6.048,-4.47,-3.02,14.63
6.061,-2.55,-1.49,11.3
6.063,-4.16,1.8,13.93
6.074,-5.02,-1.61,15.1
6.095,-5.69,-2.2,11.22
6.13,-4.08,-7.61,13.89
6.163,-3.49,-5.57,14.83
6.195,-0.86,-1.29,5.37
6.213,-5.06,2.28,2.47
6.262,0.63,-1.92,3.96
6.28,0.04,-1.8,5.96
6.327,0.59,-2.55,4.79
6.358,1.33,-2.51,5.88
6.438,1.57,-3.45,7.1
6.462,2.51,-2.51,8.28
6.507,2.71,-1.33,14.44
6.542,-1.02,-1.06,19.97
6.544,4.86,-5.1,13.22
6.546,1.37,-7.3,17.1
6.577,-5.88,-4.35,13.38
6.613,-2.71,-9.49,8.12
6.645,-4.08,-1.77,7.14
6.678,-2.71,-0.71,10.36
6.695,-0.98,-3.18,8.36
6.718,-2.47,-1.8,7.26
6.752,-1.57,-1.33,4.79
6.785,-2.16,-1.06,5.26
6.819,-3.61,-0.43,8.63
6.853,-2.63,-0.39,7.34
6.887,-2.04,-0.71,8.12
6.926,-3.96,0.55,9.14
6.955,-3.65,-1.37,10.87
6.997,-4.98,-5.84,15.22
7.022,-2.79,0.55,11.81
7.042,-3.02,5.65,13.61
7.074,-6.63,-2.51,17.02
7.108,-10.2,1.26,10.67
7.139,-3.18,-0.82,7.96
7.174,-5.45,-5.73,10.24
7.198,-3.8,-7.1,14.75
7.232,-6.59,-1.84,11.26
7.265,-2.28,0.04,2.82
7.298,2.08,-2.12,3.88
7.333,1.1,-2,6.39
7.365,0.27,-2.47,4.98
7.398,1.41,-2.59,5.84
7.431,0.9,-2,7.14
7.464,1.77,-2.47,8.12
7.497,2.04,-1.65,12.16
7.533,-0.24,-1.65,18.04
7.567,2.59,-4.82,14.2
7.599,3.1,-5.69,15.3
7.631,-5.92,-2.75,15.22
7.707,-1.45,-9.26,9.92
7.777,-2.67,-1.61,6.24
7.846,-0.71,-0.51,8.79
7.911,-2.55,-1.92,8.39
7.983,-1.57,-2.16,5.61
8.051,-3.37,-1.45,5.49
8.077,-1.37,-0.16,8.83
8.08,-3.33,0.2,8.47
8.083,-2.35,-5.69,14.36
8.096,-6.79,2.98,13.1
8.133,-8.28,0.2,17.53
8.17,-10.67,-1.33,13.22
8.203,-9.85,1.73,7.02
8.235,-3.37,-5.73,9.3
8.268,-2.75,-6,14.2
8.304,-6.2,-3.14,13.89
8.337,-3.3,-0.47,7.45
8.372,1.22,-1.77,2.98
8.404,-0.67,-2.24,6.2
8.426,-0.08,-2,4.98
8.45,0,-2.67,5.45
8.478,0.78,-2.31,6.63
8.512,1.61,-3.33,7.14
8.542,2.2,-2.55,9.22
8.58,2,-1.77,14.71
8.612,-1.73,-3.33,17.73
8.645,3.57,-7.02,13.81
8.683,0.2,-3.84,17.18
8.716,-6.9,-9.61,12.79
8.749,-2.35,-2.86,5.49
8.782,-1.57,0.27,8
8.817,0,-2.43,10.67
8.852,-2.82,-3.18,8.39
8.885,-2.16,-0.63,5.92
8.919,-3.33,-0.75,5.61
8.988,-2.55,-1.06,8.43
9.057,-3.88,-0.63,8.47
9.092,-1.84,-1.45,8.08
9.104,-1.96,-0.51,7.77
9.115,-5.06,-1.61,13.96
9.136,-2.28,-3.61,13.06
9.169,-4.12,3.41,13.18
9.203,-4.55,-1.37,15.77
9.22,-6.94,-2.82,12.55
9.252,-9.34,1.73,5.26
9.284,-3.61,-2.47,10.43
9.318,-3.88,-6.16,14.08
9.352,-7.81,-2.59,14.98
9.388,-1.1,-0.04,5.84
9.423,-0.55,-0.59,2.67
9.456,0.24,-2.71,4.63
9.488,-0.12,-2.71,5.37
9.57,-0.04,-2.55,4.94
9.574,0.39,-2.28,6.86
9.635,1.53,-3.18,7.85
9.702,2.31,-2.47,10.47
9.764,0.71,-1.33,17.1
9.786,4.75,-5.02,13.49
9.815,-0.39,-4.55,5.49
9.836,-1.73,-0.67,9.02
9.872,-0.78,-2.12,11.34
9.908,-3.8,-2.63,8.59
9.944,-1.53,-2.12,5.84
9.968,-2.63,-0.86,5.3
9.986,-2.31,-0.75,6.98
10.018,-3.73,0.08,7.53
10.051,-1.65,-0.63,7.65
10.084,-3.26,-0.43,7.49
10.121,-4.43,-0.31,9.53
10.155,-4.28,-2.51,12.4
10.187,-2.08,-5.06,12.43
10.264,-3.57,1.84,12.24
10.331,-6.51,2.86,15.49
10.377,-6.32,-3.18,15.22
10.398,-11.85,2.94,7.57
10.414,-4.28,-3.57,12.94
10.433,-3.3,-0.59,7.53
10.492,-4.16,0.43,4.39
10.517,0.08,-2.59,4.04
10.532,0.39,-2.16,5.88
10.561,0.04,-2.43,5.26
10.593,1.06,-3.3,7.22
10.63,1.53,-3.57,7.22
10.662,1.92,-2.59,8.75
10.695,3.49,-0.98,14.51
10.729,-1.02,-1.02,20.01
10.765,5.3,-5.53,12.59
10.799,1.02,-4.67,16.4
11.148,-12.32,-10.71,13.89
11.635,-1.45,-4.55,6.32
11.769,-2.08,-0.2,9.18
11.8,-2.31,-1.14,11.45
11.815,-2.39,-3.18,7.49
11.829,0.77,-3,8.53
11.832,2.35,-3.02,11.1
11.848,4.79,-5.33,14.79
11.867,-2.55,-2,13.89
11.9,-4.67,-9.96,10.59
11.938,-3.22,-1.41,10.67
11.97,-1.96,-0.24,6.98
12.005,-1.92,-3.1,9.49
12.037,-4.94,-3.14,9.92
12.074,-0.39,-1.02,6.2
12.108,-2.55,0.43,4.75
12.139,-2.75,-0.08,6.04
12.171,-1.1,-1.65,8.75
12.207,-1.69,-0.59,9.3
12.241,-3.1,1.1,8.32
12.257,-3.26,-1.1,10.71
12.282,-4.59,-5.18,15.61
12.318,-2.79,-0.82,11.92
12.352,-4,3.02,13.77
12.386,-5.73,-5.57,15.22
12.428,-11.53,2.51,6.9
12.445,-5.45,0.47,9.73
12.488,-6.63,-5.77,11.77
12.523,-4.24,-6.63,14.95
12.558,-6.04,-2.31,13.06
12.591,-3.57,0.04,4
12.624,1.8,-1.65,2.86
12.643,-0.39,-2.51,6.2
12.668,1.02,-2.08,5.1
12.7,0.71,-2.31,5.02
12.735,1.29,-2.79,6.32
12.809,2.63,-2.75,7.73
12.826,2,-2.55,12.32
12.88,-0.55,-1.73,20.01
12.927,2.94,-5.18,14.98
12.961,-6.9,-4.94,12.63
12.972,-4.9,-9.69,10.2
12.999,-3.69,-1.96,9.65
13.032,-1.37,0.43,8.98
13.064,-0.75,-2.2,9.14
13.1,-5.06,-1.73,9.26
13.127,-1.45,-0.55,3.88
13.159,-3.92,-1.69,5.96
13.197,-2.67,-0.27,6.79
13.228,-1.84,-0.78,7.65
13.303,-1.69,-1.26,7.06
13.326,-2.98,0.51,9.14
13.371,-4.39,-0.08,10.71
13.439,-4.39,-5.26,14.08
13.489,-2.43,0.24,10.59
13.508,-6.9,2.2,15.49
13.511,-6.08,1.41,8.08
13.535,-6.86,-4.47,10.94
13.569,-4.16,-7.77,14
13.604,-4.43,-2,10.4
13.641,-4.51,1.61,4.55
13.676,2.43,-2.63,2.31
13.703,-3.1,-1.18,8.08
13.747,0.63,-2.08,4.94
13.777,0.55,-2.43,5.41
13.801,1.84,-3.45,7.57
13.819,1.73,-3.73,7.69
13.871,2.16,-0.31,12.71
13.904,-0.78,-0.27,19.38
13.924,4.51,-5.1,14.28
13.947,3.57,-6.04,14.59
13.979,-2.55,-3.61,13.57
14.012,-4.39,-10.43,11.3
14.091,-3.73,-2.59,8.9
14.158,-3.1,-1.1,10.16
14.213,-1.26,-2.43,7.73
14.242,-3.88,-1.53,9.3
14.244,-3.22,-1.26,5.18
14.257,-2.35,-0.82,5.84
14.291,-4.2,-0.2,7.65
14.323,-1.84,-0.67,8.67
14.339,-2.86,0.35,8.43
14.372,-3.22,-0.39,10.87
14.404,-5.65,-4.75,15.49
14.45,-1.57,-2.47,13.14
14.474,-3.96,4.04,13.57
14.491,-5.65,-1.37,15.18
14.525,-9.73,-1.06,10
14.56,-6.67,1.61,7.18
14.597,-4.2,-5.41,12.04
14.629,-2.47,-6.43,14.4
14.663,-6.2,-1.53,12.55
14.698,-3.06,0.35,3.61
14.732,2.86,-1.8,1.88
14.767,-0.9,-2.08,4.82
14.802,0.75,-1.96,5.53
14.834,0.75,-1.57,6
14.855,1.61,-3.22,8.43
14.89,2.08,-2.86,8.47
14.91,2.24,-1.29,12.71
14.946,-1.06,-1.33,19.69
14.98,5.73,-5.96,12.94
15.014,1.96,-4.94,15.53
15.062,-4.55,-2.59,12.94
15.088,-2.47,-8.75,8.55
15.141,-1.61,-1.49,9.3
15.21,-2.98,-0.27,9.65
15.276,-1.45,-2.67,9.53
15.344,-2.63,-2.67,9.18
15.412,-0.78,-1.41,6.28
15.438,-1.73,-0.63,4.55
15.477,-4.75,-0.31,7.02
15.529,-2.31,-0.86,6.83
15.557,-5.22,-2.82,16.99
15.59,-11.41,2.59,8.2
15.623,-5.26,-0.08,9.49
15.656,-6.04,-6.79,12.36
15.693,-4.39,-6.47,14.59
15.716,-4.55,-1.06,11.1
15.75,-4.59,-0.04,5.3
15.784,1.57,-2.59,3.49
15.819,-1.45,-2.75,5.92
15.854,0.04,-2.12,5.45
15.887,0.59,-2.55,4.12
15.919,0.71,-2.04,5.53
15.951,2.51,-3.53,7.77
15.988,3.22,-2.9,9.77
16.021,2.08,-3.22,16.32
16.038,-3.65,-3.14,19.26
16.063,2.59,-7.18,14.44
16.092,0.82,-0.67,16.28
16.127,-0.35,-9.65,10.28
16.161,-3.96,-2.2,4.75
16.194,-2.31,0,11.65
16.23,0.75,-3.06,10.51
16.262,-2.67,-3.49,9.73
16.296,-0.9,-1.84,4.9
16.331,-3.45,-0.35,5.92
16.35,-2.43,-0.75,6.47
16.383,-2.79,-0.12,7.61
16.412,-3.22,-0.16,7.14
16.446,-3.88,-0.82,6.75
16.483,-3.8,0.16,11.41
16.519,-3.73,-2.24,11.92
16.549,-3.65,-2.12,13.85
16.58,-4.59,4.2,13.65
16.656,-4.39,-2.08,15.65
16.726,-7.57,-0.59,12.51
16.999,-9.45,2.59,5.69
17.485,-5.45,-3.88,11.96
17.517,-4.59,-7.96,14.12
17.519,-4.75,-4.98,14.2
17.526,-2.75,-0.2,6.24
17.533,-1.84,-4.31,18.16
17.547,-3.61,-0.47,7.65
17.569,-5.02,-1.88,11.85
17.602,-5.1,-5.06,14.98
17.641,-2.79,-1.14,11.89
17.674,-5.3,3.77,15.18
17.706,-6.12,-5.14,16.48
17.728,-12.83,2.82,7.92
17.763,-4.79,0.16,8.87
17.781,-6.2,-6.28,10.4
17.815,-1.73,-6.28,14.47
17.848,-4.86,-2.04,10.55
17.925,-4.43,1.14,3.96
17.948,0.98,-2.12,3.69
17.997,0.94,-2.67,5.61
18.054,-0.16,-2.39,4.82
18.079,2,-3.53,7.45
18.096,1.88,-3.02,8.32
18.119,1.84,-0.94,12.12
18.152,-1.53,-1.41,19.97
18.187,5.61,-5.57,12.71
18.22,-0.78,-7.34,15.89
18.246,-8.16,-6.75,13.45
18.263,-0.78,-6.63,8.2
18.296,-3.77,-0.47,6.98
18.33,-2.51,-1.33,10.87
18.372,-1.26,-4.28,9.53
18.409,-0.78,-2,7.02
18.445,-3.06,0.08,4.63
18.475,-3.45,-0.39,6.86
18.511,-3.53,-0.55,7.26
18.525,-3.1,-0.55,8.55
18.552,-0.35,-1.22,6.55
18.586,-2.43,0.31,7.41
18.622,-4.2,-0.55,11.92
18.654,-3.8,-4.98,14.98
18.688,-4.94,0.31,12.94
18.722,-4.71,3.06,14.24
18.757,-5.53,-5.81,15.26
18.789,-11.69,2.28,9.26
18.867,-4.71,2.55,7.26
19.011,-6.9,-5.06,14.67
19.06,-4.2,-0.98,10.75
19.089,-3.41,0.55,2.47
19.092,-0.35,-2.39,5.37
19.093,0.08,-2.82,5.3
19.095,0.12,-2,6.63
19.11,1.41,-4.47,7.88
19.141,1.33,-2.08,9.45
19.216,3.41,-0.94,15.81
19.282,-2.75,-2.59,19.06
19.321,4.82,-5.57,12.36
19.34,0.71,-7.45,15.3
19.361,-1.14,-1.02,9.61
19.396,-0.43,-1.18,10.12
19.43,-1.84,-2.51,7.18
19.463,-3.53,-1.49,8.12
19.499,-3.33,-0.63,4.94
19.533,-3.1,-0.59,7.18
19.566,-3.41,-0.39,7.18
19.591,-2.67,-1.02,7.18
19.607,-1.61,-1.22,6.2
19.657,-4.28,0.43,9.73
19.692,-4.04,-1.8,12.51
19.725,-2.35,-4.82,14.2
19.759,-3.37,1.22,12.55
19.789,-5.57,1.69,14.75
19.821,-6,-5.77,15.3
19.839,-12.16,3.02,6.94
19.864,-6,-2.86,11.61
19.898,-3.65,-7.02,14.59
19.932,-4.67,-3.84,13.57
19.967,-0.47,-0.75,5.96
20.001,-3.61,0.75,2.86
20.034,0.55,-3.49,4.24
20.065,-0.55,-2.63,5.26
20.102,0.31,-2.31,5.18
20.134,0.27,-1.45,6.43
20.167,2.43,-2.67,7.73
20.199,2.24,-3.06,10.16
20.238,2.51,-1.69,16.71
20.274,-0.82,-2.51,18.44
20.306,4.9,-4.12,11.45
20.323,2.2,-5.26,16.67
20.351,-6.08,-10.71,10.71
20.383,-2.24,-4.35,7.88
20.419,-0.71,-1.49,10.04
20.491,0.2,-1.14,10.51
20.562,-3.06,-2.67,7.57
20.601,-2.82,-1.57,7.77
20.64,1.41,-0.86,1.73
20.643,-4.63,-0.86,8.2
20.645,-3.77,-0.35,7.53
20.66,-0.59,-1.26,6.63
20.686,-1.18,-0.59,6.47
20.743,-4.51,0.55,9.85
20.815,-3.96,-4.79,14.36
20.876,-4.75,1.8,12.12
20.921,-4.71,0.47,15.34
20.956,-5.02,-5.18,14.79
20.957,-11.57,3.96,7.53
20.959,-6.16,-0.27,10.9
20.971,-3.88,-6.39,11.57
20.996,-4.47,-6.08,14.16
21.029,-2.24,-1.69,12.12
21.064,-2.59,0.12,3.77
21.099,0.67,-3.3,5.22
21.137,-0.39,-2.47,5.92
21.163,-0.35,-2.24,4.82
21.197,0.16,-2.39,5.45
21.229,0.98,-2.35,6.51
21.262,1.92,-3.69,8.28
21.286,1.77,-2.08,12.4
21.304,-0.2,-1.84,19.5
21.339,4.39,-5.53,13.3
21.371,2.79,-5.88,14.2
21.407,-1.14,-2.35,12.08
21.442,-6.79,-12.2,11.92
21.473,-4.47,-2.98,11.77
21.507,1.61,0.12,8.36
21.552,-1.14,-1.53,7.45
21.586,-4.04,-2.2,9.26
21.616,-1.22,-1.77,6.63
21.643,-2.98,-0.86,5.06
21.68,-4.39,-0.43,8.24
21.72,-3.14,-0.55,7.81
21.791,0.63,-1.69,7.02
21.856,-3.37,-0.59,9.53
21.884,-4.59,-2.86,12.79
21.886,-3.49,-5.22,13.89
21.918,-5.88,-0.59,15.69
21.947,-8.12,-2.39,14.75
21.984,-11.1,4.04,7.1
22.019,-5.26,-5.37,10.24
22.052,-2.94,-7.37,13.57
22.086,-3.84,-3.18,12.71
22.118,-4.28,0.24,6.59
22.154,-3.88,-0.16,4.08
22.187,-0.24,-3.41,4.75
22.222,0.08,-2.94,5.41
22.252,0.47,-2.31,5.02
22.281,0.24,-1.73,5.57
22.302,2.16,-2.47,7.77
22.335,2.31,-3.53,10.71
22.369,1.88,-2.31,16.36
22.406,-1.45,-2.08,17.77
22.438,4.79,-5.69,13.02
22.472,3.26,-1.02,16.12
22.505,-5.26,-9.14,12.16
22.848,-1.96,-4.31,8.28
22.882,0.08,-0.08,8.67
22.887,-1.65,-1.22,8
22.9,-4.31,-1.69,11.89
22.918,-4.35,-4.82,14.75
22.938,-3.88,0.78,12.43
22.975,-4.86,4.35,14.47
23.048,-6.04,-5.02,14.32
23.117,-11.22,3.37,6.35
23.148,-4.59,-1.18,10
23.166,-4.28,-6.79,11.77
23.194,-2.16,-1.1,9.81
23.213,-4.51,0.78,4.79
23.232,1.02,-3.61,5.14
23.265,-0.31,-2.43,5.14
23.298,-0.43,-2.82,5.3
23.33,0.75,-2.9,5.84
23.366,1.1,-2.75,7.1
23.398,3.06,-2.08,9.06
23.431,2.75,-2.59,13.42
23.465,0.98,-2.04,19.1
23.5,4.63,-4.39,11.53
23.534,2.59,-2.98,14.32
23.573,-7.49,-8.79,11.41
23.589,-2.24,-7.41,9.61
23.608,-1.41,-1.65,10.16
23.656,-1.61,-1.06,8.43
23.689,-0.94,-2.2,8.28
23.722,-3.57,-1.77,9.45
23.758,-1.45,-0.35,4.94
23.796,-3.69,-0.16,7.34
23.823,-4.12,-0.59,6.94
23.862,-1.02,-1.53,6.16
23.89,-1.69,-1.26,8.24
23.906,-2.71,0.12,8.55
23.933,-3.14,-0.31,9.65
23.968,-3.06,-3.41,13.89
24.003,-0.9,-1.18,12.32
24.034,-4.28,2,13.65
24.069,-5.73,-4.12,15.77
24.106,-11.85,1.84,10
24.138,-5.3,1.33,6.32
24.17,-5.45,-5.37,12.32
24.191,-2.94,-7.41,14.47
24.235,-4.16,-1.26,10.79
24.259,-5.37,1.49,5.26
24.325,1.88,-2.94,3.1
24.392,-0.39,-3.3,5.33
24.459,-0.47,-2.51,5.61
24.529,1.37,-2.16,6.67
24.595,2.24,-2.08,12.63
24.663,-0.67,-1.57,19.3
24.693,3.77,-4.2,13.45
24.696,4.24,-3.84,13.96
24.724,0.12,-0.39,7.61
24.742,-1.92,-0.98,7.85
24.761,-3.77,-1.73,9.65
24.794,-1.73,-1.29,7.3
24.828,-3.77,-0.47,5.3
24.863,-3.26,-0.75,6.71
24.897,-2.98,-1.61,8.28
24.919,-0.75,-1.33,6.63
24.969,-2.79,0.59,7.26
25.002,-3.96,-0.98,10.51
25.034,-5.22,-2.79,12.59
25.071,-4.2,-3.37,13.45
25.109,-3.61,2.16,12.55
25.128,-5.14,-0.9,15.89
25.155,-6.94,-4,14.87
25.191,-9.85,4.75,6.08
25.223,-4.12,-4.67,11.38
25.256,-3.41,-8.67,12.51
25.294,-6.12,-4.2,13.38
25.327,-3.06,-0.47,6.67
25.36,-4.94,2.59,2.08
25.385,-0.04,-2.55,5.22
25.403,-0.55,-2.43,5.14
25.434,0.75,-2.35,5.45
25.467,0.59,-3.02,6.32
25.499,1.22,-1.65,6.98
25.533,2.28,-1.73,10.08
25.622,2.28,-2.43,16.28
25.687,-0.9,-2.08,18.63
25.725,5.26,-5.18,13.57
25.742,2.28,-3.69,16.36
25.744,-6.24,-9.02,9.96
25.765,1.06,-2.43,9.65
25.803,-3.3,-0.98,9.34
25.84,-0.16,-2.59,7.1
25.87,-4.31,-1.37,8.67
25.901,-3.18,-0.98,5.84
25.933,-3.96,-1.14,6.94
25.954,-2.16,-0.31,6.43
25.981,-0.9,-0.9,7.41
26.017,-2.75,0.04,8.98
26.055,-2.9,0.86,8.32
26.081,-4.43,-0.75,10.36
26.113,-4.31,-4.63,14.44
26.147,-4.16,-1.53,11.73
26.183,-5.92,0.12,15.14
26.225,-6.43,-3.65,16.28
26.254,-13.81,4.31,7.06
26.319,-4.16,-3.18,9.77
26.386,-4.75,-7.57,11.34
26.454,-2.86,-4.59,12.63
26.509,-3.61,-1.02,9.02
26.55,-4.67,0.12,5.02
26.552,0.04,-2.79,6.63
26.554,1.88,-3.18,7.53
26.583,1.45,-2.28,8.12
26.617,2.35,-0.16,12.4
26.651,-2.75,-1.22,19.22
26.687,4.35,-5.53,13.61
26.72,1.77,-3.1,17.06
26.753,-9.1,-11.22,12.2
26.789,0.59,-5.69,4.9
26.823,-2.28,-0.82,10.04
26.895,-1.49,-1.45,10.59
26.965,-1.8,-3.22,7.06
27.008,-1.8,-1.96,4.31
27.041,-1.77,-0.78,7.53
27.073,-2.55,-0.71,8.43
27.107,-4.75,0.98,9.38
27.139,-4.39,-0.08,11.34
27.176,-2.75,-4.16,13.81
27.21,-4,0,12.08
27.243,-6.24,1.18,15.02
27.276,-4.16,-5.1,14.44
27.297,-11.06,2.12,6.43
27.32,-5.37,0.82,9.57
27.376,-4.16,-5.37,13.53
27.4,-6.71,-6.2,14.67
27.422,-1.18,-1.53,8.24
27.456,-5.73,1.37,4.51
27.489,0.82,-3.18,5.1
27.522,0.24,-2.31,4.9
27.558,-0.08,-1.73,4.67
27.581,0.63,-2.2,5.57
27.61,1.14,-2.28,7.26
27.643,2.59,-2.79,9.92
27.676,2.31,-1.77,14.24
27.712,-2.08,-1.29,18.63
27.751,5.18,-4.94,12.55
27.78,1.77,-4.98,16.16
27.815,-7.49,-5.61,13.81
27.847,-2.24,-7.81,8.9
27.885,-2.86,-1.14,8.75
28.21,-2.75,-0.63,10.2
28.708,-0.35,-4.12,7.88
28.747,-3.06,-2.71,9.3
28.749,-3.02,-1.14,6.75
28.754,-2.75,-0.31,6
28.76,-4.12,-5.26,15.49
28.782,0.78,-1.33,16.32
28.807,-2,-3.3,16.24
28.826,5.26,-5.73,12.98
28.856,4.59,-1.49,12.4
28.894,-8.04,-7.85,11.92
28.923,-5.53,-9.53,12.47
28.958,0.63,-0.04,8.43
28.995,-2.43,-0.78,6.79
29.028,-1.22,-2.86,7.85
29.062,-3.84,-1.77,9.69
29.084,-2.43,-1.53,6.2
29.113,-3.26,-0.24,5.84
29.134,-4.79,-0.08,6.94
29.173,-1.88,-1.37,8.43
29.21,-2.04,-0.63,8.55
29.239,-4.55,0.63,10
29.278,-3.65,-0.98,11.53
29.308,-2.08,-4.2,13.42
29.343,-3.69,0.98,10.94
29.377,-4.12,0.67,13.69
29.451,-6.28,-4.75,13.34
29.476,-6.83,3.45,7.02
29.525,-6.32,-2.31,12.47
29.577,-3.69,-6.98,15.02
29.612,-4.67,-4.51,15.34
29.614,-2.04,-0.27,7.65
29.617,-1.84,-0.31,4.2
29.636,-0.43,-3.06,5.26
29.659,-0.12,-1.69,4.35
29.68,0.82,-2.71,4.47
29.713,0.39,-2.67,6.04
29.749,1.41,-2.2,6.86
29.782,2.51,-2.35,11.3
29.815,-0.12,-1.88,17.3
29.85,-1.49,-2.98,15.3
29.886,4.71,-4.98,12.98
29.926,-0.63,-0.78,15.26
29.951,-4.86,-10.12,11.65
29.976,-1.92,-3.96,7.88
30.034,-1.73,-0.24,9.06
30.098,-1.49,-1.26,10.87
30.242,-3.69,-2.75,9.73
30.278,-1.57,-2.82,9.1
30.28,-2.67,-0.71,5.69
30.283,-3.65,0.2,8.08
30.304,-4.28,-0.04,10.08
30.338,-3.06,-0.82,11.45
30.366,-2.94,-4.12,12.87
30.4,-4.24,0.16,12.2
30.436,-3.65,-2.82,14.91
30.476,-6.75,-2.9,13.73
30.497,-12.12,4.12,6.59
30.518,-3.49,-2.2,11.22
30.556,-3.14,-7.22,12.51
30.579,-2.24,-5.22,14.51
30.614,-1.61,-1.29,9.77
30.647,-0.47,1.18,4.12
30.722,-0.16,-2.51,4.98
30.795,0.16,-2.79,5.1
30.845,0.35,-2.98,6.39
30.875,2.63,-2.86,7.22
30.896,-0.43,-1.69,14.4
30.918,-0.39,-4.16,15.69
30.954,6.32,-4.98,13.34
30.975,2.43,-0.12,11.96
31.003,-5.37,-9.26,9.53
31.029,-5.02,-6.94,14.36
31.064,0.31,0.94,8.51
31.097,-2.79,-0.9,7.88
31.13,-1.29,-4.04,9.02
31.166,-1.84,-2,9.26
31.201,-1.8,-0.67,5.49
31.233,-1.45,0.47,5.14
31.272,-3.8,-0.31,6.98
31.304,-1.45,-0.94,7.53
31.324,-1.41,-0.35,7.3
31.343,-4.24,0.51,8.87
31.374,-5.41,-1.37,11.57
31.411,-2.24,-4.98,13.38
31.444,-3.22,1.61,10.98
31.478,-3.53,0.31,13.85
31.51,-6.12,-3.84,13.93
31.543,-9.81,3.14,5.96
31.575,-5.92,-0.9,11.85
31.609,-3.14,-6.9,14.51
31.646,-5.49,-3.37,16.87
31.678,-2.94,0.39,7.73
31.711,-5.3,0.2,6.2
31.743,1.57,-3.57,3.45
31.776,-0.78,-2.75,5.53
31.802,0.27,-2.79,4.86
31.836,0.24,-2.82,6.12
31.887,0.94,-1.96,6.59
31.956,3.1,-2.63,8.98
31.987,0.67,-2.59,14.36
32.028,-6.59,-1.53,17.97
32.091,7.53,-5.14,13.38
32.16,5.73,-2.67,13.45
32.203,-4.43,-3.1,13.1
32.234,-2.31,-10.47,10.24
32.266,0.71,-1.88,11.34
32.297,-2.79,1.1,9.41
32.3,-2.63,-0.27,5.33
32.324,-2.71,0.27,6.75
32.346,-0.55,-0.35,6.08
32.379,-1.96,-0.12,7.65
32.412,-3.06,0.35,8.87
32.446,-4.98,-0.55,12.2
32.485,-3.06,-3.45,13.53
32.516,-2.55,-0.98,11.73
32.536,-6.59,1.92,13.26
32.564,-5.77,-5.41,15.1
32.592,-12.4,2.9,7.34
32.625,-4.67,-4.47,10.51
32.66,-2.47,-7.14,14.55
32.7,-5.57,-2.98,16.91
32.731,-4.75,1.88,7.45
32.765,-1.29,0,4.63
32.799,-1.06,-2.82,4.9
32.843,0.51,-3.1,3.8
32.883,0.31,-2.51,4.71
32.901,0.82,-2.12,6.32
32.929,3.57,-1.8,7.81
32.965,3.53,-2.71,10.55
32.989,-1.22,-1.37,15.81
33.014,-2.86,-3.37,17.1
33.039,4.59,-5.22,14.24
33.073,0.39,-1.41,13.57
33.106,-0.75,-9.1,9.96
33.139,-3.49,0,9.34
33.174,-2.2,0.12,9.06
33.215,-2.04,-3.02,8.59
33.28,-1.53,-4.94,10.47
33.316,-1.84,-1.92,6.79
33.351,-2,-0.82,5.18
33.407,-4.51,0.59,7.14
33.447,-1.77,-0.31,7.53
33.449,-2.04,-0.55,7.77
33.473,-4.12,-0.59,10.63
33.494,-5.65,-1.22,13.42
33.524,-3.45,-3.3,13.61
33.562,-4.79,3.41,11.81
33.601,-5.92,-5.22,16.12
33.629,-11.61,2.82,9.22
33.65,-4.9,1.73,8.71
33.679,-6.24,-5.06,10.47
33.715,-1.69,-5.88,15.3
34.062,-3.02,-2.28,12.79
34.548,-3.77,0.94,4.94
34.683,-1.45,-0.82,4.31
34.721,-1.41,-2.2,5.61
34.727,-3.4,-4.86,12.94
34.729,-5.49,-5.45,15.18
34.731,-4.71,-3.61,9.38
34.757,-1.92,-6.51,14.04
34.784,-5.22,-3.84,17.06
34.819,-3.3,-0.08,7.85
34.859,-3.18,-0.35,4.28
34.898,-0.35,-2.59,4.04
34.93,-0.16,-2.47,5.37
34.959,0.55,-3.14,4.63
34.98,1.88,-2.63,6.51
35.008,3.02,-2.2,7.88
35.041,3.33,-1.88,11.14
35.076,-0.55,-1.69,16.71
35.11,-0.67,-3.92,15.85
35.145,4.2,-4.55,13.85
35.18,-0.55,-0.86,11.61
35.213,-6.86,-10.32,11.81
35.247,-6.51,-4.82,11.89
35.281,-1.06,1.1,10.59
35.306,-2,0.27,8.55
35.328,-3.41,-2.94,9.65
35.355,-2.71,-2.86,9.89
35.39,-2.12,-2.16,4.35
35.424,-4.16,0.51,7.77
35.457,-3.3,0.39,7.69
35.49,-1.84,-0.67,7.3
35.517,-1.88,-0.16,7.37
35.556,-3.41,-0.04,11.06
35.624,-6.35,-1.18,13.65
35.695,-1.33,-4.55,13.53
35.761,-4.94,2.43,11.77
35.826,-5.06,-2.55,14.55
35.896,-8.39,-0.47,9.92
35.925,-6.79,4.63,5.77
35.963,-5.96,-4.67,14.44
35.988,-3.88,-8.98,17.14
35.991,-2.9,0.27,6
36.022,-0.27,-2.75,5.84
36.046,1.18,-2.63,6.83
36.078,3.45,-3.06,7.81
36.112,3.49,-3.22,10.59
36.138,-1.53,-1.53,16.12
36.161,7.06,-6.32,14.12
36.193,4.04,-2.9,14.91
36.23,-2.39,-1.22,12.71
36.273,-4.47,-9.14,12.28
36.296,-2.59,-2.71,7.45
36.337,-3.96,0.12,8.87
36.37,-0.94,-2.86,10.94
36.404,-4.24,-4.75,11.06
36.437,-1.96,-1.69,7.26
36.47,-2.79,-0.24,4.94
36.492,-3.65,0.2,6.35
36.517,-1.96,-0.27,7.1
36.552,-1.53,-0.94,7.69
36.581,-1.73,0.12,7.92
36.618,-4,0.78,9.41
36.646,-4.04,-1.33,12.12
36.688,-2.47,-3.96,13.53
36.719,-2.59,3.41,11.61
36.752,0.16,-1.18,13.57
36.786,-5.02,-2.98,14.08
36.813,-13.1,4.24,6
36.854,-5.84,-2.75,10.36
36.885,-3.1,-8.12,13.38
36.918,-6.83,-2.71,14.63
36.941,-2.67,0.43,7.41
36.968,0.51,-1.8,2.75
36.993,-0.86,-2.79,5.45
37.023,-0.16,-2.71,5.69
37.058,-0.55,-2.24,5.84
37.136,1.57,-3.57,7.37
37.168,1.18,-4.47,8.2
37.206,2.63,-1.45,8.71
37.237,3.57,-1.14,15.73
37.268,-5.06,-1.57,18.48
37.27,3.8,-4.63,13.26
37.301,2.75,-1.77,15.18
37.322,-7.1,-8.32,10.79
37.356,-0.71,-7.34,7.73
37.389,0.12,-0.24,9.1
37.473,-1.61,-1.1,10.87
37.54,-2.67,-3.37,8.32
37.609,-1.53,-2.86,8.55
37.665,-1.41,-1.49,4.98
37.699,-3.84,0.63,7.14
37.701,-2.63,0.24,8.55
37.702,-3.77,0.71,9.89
37.727,-4.55,-1.18,11.1
37.766,-2.24,-3.96,13.61
37.788,-3.8,1.1,12.28
37.79,-5.06,1.37,14
37.82,-4.79,-5.06,14.91
37.855,-11.61,1.77,6.2
37.892,-4.98,-2.75,11.85
37.934,-3.37,-7.26,15.06
37.959,-6.12,-4.16,16.32
37.999,-1.96,-0.71,7.57
38.032,-4,0.9,4.12
38.065,-0.63,-3.1,5.1
38.099,-0.24,-2.75,5.14
38.13,0.04,-2.98,4.79
38.153,1.61,-2.08,6.98
38.181,3.1,-3.18,8.43
38.217,2.31,-2.63,9.96
38.248,-0.24,-0.94,16.16
38.282,-0.78,-3.77,16.59
38.314,5.73,-4.82,13.06
38.348,6.28,1.57,10
38.423,-5.73,-8.04,7.26
38.491,-10.94,-6.35,20.01
38.53,1.45,1.33,8.32
38.532,-1.49,-0.63,6.43
38.533,-4.63,-2.47,11.89
38.561,-1.22,-1.1,5.61
38.596,-1.49,-0.04,4.39
38.627,-2.82,-0.63,7.06
38.662,-1.69,-0.43,8.39
38.697,-3.49,0.08,7.85
38.729,-2.75,-0.39,9.77
38.768,-4.79,-1.14,12.79
38.794,-2.94,-3.73,13.65
38.818,-3.84,1.29,11.73
38.852,-4,-1.26,15.69
38.885,-8.36,-0.12,11.57
38.921,-9.1,3.45,4.75
38.96,-3.73,-2.43,11.22
38.989,-1.26,-8,14.87
39.027,-4.79,-3.37,15.06
39.057,-1.49,-0.63,8.08
39.092,-5.41,1.37,5.53
39.119,-1.29,-2.12,5.81
39.143,0.55,-2.55,5.06
39.167,-0.08,-2.31,5.1
39.2,0.55,-1.96,6.24
39.233,2.04,-2.43,7.49
39.265,2.9,-3.37,9.26
39.344,0.94,-1.84,13.38
39.346,-3.73,-0.82,18.04
39.409,6.98,-4.63,13.81
39.477,5.06,-1.53,14
39.514,-5.84,-4.04,12.24
39.545,-2.39,-1.18,13.1
39.547,-4.9,0.67,7.65
39.571,-0.16,-3.69,8.83
39.909,-4.24,-3.14,10.4
40.397,-1.29,-1.49,6.51
40.425,-1.57,0.08,5.33
40.426,-2.86,0.16,7.26
40.435,-1.73,-0.47,7.49
40.444,-4.16,7.26,15.22
40.47,1.33,-4.39,16.63
40.493,-8.12,-4.9,16
40.523,2.35,-7.22,8.24
40.556,-2.9,0.51,6.59
40.585,-1.77,-2.39,12.98
40.625,-3.69,-3.84,9.38
40.658,-0.59,-1.84,8
40.69,-1.77,-0.63,5.88
40.724,-1.96,-1.06,6.04
40.75,-2.55,-0.16,7.3
40.788,-1.26,-0.31,5.33
40.817,-3.26,0.12,8.79
40.857,-3.06,-0.24,10.08
40.886,-5.14,-0.75,11.85
40.923,-3.84,-3.77,13.14
40.988,-5.1,-0.35,12.87
41.052,-2.9,1.8,13.69
41.093,-5.84,-4.2,16.2
41.094,-10.55,2.55,10.2
41.097,-3.69,-0.71,8.55
41.099,-4.43,-6.47,12.51
41.125,-2.51,-6.16,15.18
41.19,-3.8,-0.78,11.45
41.257,-6.16,2.39,5.45
41.326,2.75,-2.43,2.94
41.389,-0.59,-1.65,6.16
41.424,0.86,-2.86,6.2
41.426,1.84,-2.12,11.49
41.454,-1.77,-0.2,18.36
41.487,5.65,-5.22,13.38
41.512,5.02,-4.24,14.04
41.557,-5.88,-1.88,10.94
41.584,-4.04,-9.06,9.92
41.619,-2.82,-1.61,14.71
41.645,-4.16,0.71,8.59
41.685,-0.51,-3.1,6.98
41.712,-2.51,-4.12,9.18
41.754,-1.65,-1.41,7.73
41.778,-2.35,-0.55,5.81
41.818,-1.88,0,6.55
41.843,-2.79,-0.31,8.04
41.885,-1.1,-0.86,7.96
41.887,-2.67,-0.12,9.61
41.92,-3.14,0.43,10.43
41.955,-4.39,-2.2,12.91
41.986,-3.41,-2.9,12.4
42.028,-3.69,2.63,12.12
42.072,-4,-5.84,16.2
42.102,-10.9,3.06,10.63
42.136,-6.67,2.08,7.57
42.168,-4.43,-5.41,11.06
42.202,-1.88,-6.75,14.4
42.246,-6.55,-1.53,13.34
42.315,-4.59,0.9,6.08
42.357,1.53,-2.04,2.43
42.386,-0.98,-1.92,5.61
42.411,2.47,-2.75,7.18
42.45,2.9,-3.65,7.65
42.479,3.49,-1.45,9.65
42.519,0.04,-0.86,17.38
42.548,6.98,-3.37,13.61
42.583,3.53,-5.18,15.02
42.612,-3.49,-3.3,12.94
42.65,-2.59,-7.34,11.06
42.677,-3.41,-2.08,8.24
42.719,-3.02,-0.55,9.3
42.748,-1.8,-2.71,8.39
42.774,-2.82,-2.71,8.94
42.817,-0.86,-1.49,6.83
42.846,-2.86,-0.67,6.43
42.847,-2.98,0.12,6.43
42.888,-3.69,-0.04,7.02
42.914,-1.18,-0.08,9.06
42.951,-2.9,1.14,9.41
42.983,-3.49,-0.04,9.77
43.059,-4.75,-3.3,13.73
43.124,-2,-2.47,11.65
43.193,-5.18,2.94,12.75
43.236,-5.73,-4.2,15.46
43.262,-13.3,0.63,9.14
43.265,-1.88,-7.26,13.93
43.302,-5.69,-1.1,12.83
43.332,-4.12,0.67,4.24
43.357,1.88,-3.02,3.1
43.39,-1.26,-2.35,6
43.431,0.59,-3.06,5.26
43.458,0.63,-2.47,5.73
43.499,1.77,-1.73,7.77
43.543,1.92,-2.71,9.73
43.581,2.9,-1.8,12.63
43.615,-1.84,-1.33,18.48
43.651,5.37,-6,12.71
43.68,-3.37,-7.02,8.36
43.713,-4.59,-2.2,12.87
43.747,-2.47,-1.41,7.81
43.783,-0.67,-2.51,7.49
43.816,-3.53,-1.88,9.02
43.849,-4.39,-0.82,6.63
43.884,-1.8,-0.9,5.41
43.919,-2.47,-0.51,6.55
43.965,-2.24,0.35,8.24
43.99,-1.06,-0.2,7.73
44.029,-2.55,-0.31,8.87
44.057,-4.59,-2.12,12.51
44.095,-2.08,-3.88,13.02
44.125,-5.14,1.33,12.83
44.162,-4.28,1.1,13.65
44.192,-5.65,-3.45,14.12
44.219,-10.75,2.86,7.57
44.248,-3.73,-0.35,9.14
44.276,-4.71,-5.92,11.96
44.316,-2.86,-5.92,15.02
44.35,-3.1,-0.86,9.22
44.352,-3.33,0.24,4.24
44.382,-1.06,-2.16,6.28
44.417,-0.63,-1.92,5.61
44.465,0.24,-2.28,4.63
44.494,0.82,-2.43,5.3
44.529,2.12,-2.12,6.55
44.565,3.22,-1.69,9.14
44.592,2.08,-3.3,16.28
44.628,-4.08,-1.88,18.79
44.663,6.71,-6.32,14.87
44.691,2.28,-1.02,13.18
44.728,-6.28,-7.61,11.77
44.757,-0.75,-7.22,6.83
44.814,-0.16,-1.69,8.83
44.883,-1.77,-1.22,10.55
44.948,-4.82,-2.31,9.57
45.019,-1.33,-2.43,7.85
45.085,-3.18,-1.41,5.57
45.144,-1.49,-0.59,5.22
45.176,-1.45,-0.31,6.2
45.179,-2.16,-3.18,13.1
45.209,-6.2,-2.94,16.16
45.245,-9.1,0.04,13.02
45.271,-3.22,1.73,7.65
45.311,-7.26,-4.75,9.77
45.341,0.67,-7.41,14.28
45.375,-5.65,-2,13.34
45.41,-3.84,0.47,5.61
45.441,3.14,-2.2,3.73
45.759,-1.49,-2.28,5.77
46.249,-0.98,-2.35,6.67
46.384,0.51,-2.2,5.14
46.424,2.08,-1.96,6.28
46.432,2.47,-2.24,11.57
46.468,-3.8,0.86,4.55
46.503,1.26,-2.04,2.51
46.529,-0.63,-2.2,4.75
46.557,-0.51,-2.04,5.37
46.591,1.18,-2.35,5.45
46.624,3.88,-2.55,7.77
46.651,3.14,-3.26,11.34
46.687,-0.16,-1.77,16.59
46.718,-5.33,-3.02,17.69
46.721,6.59,-6.16,14.59
46.785,0.47,-1.26,14.04
46.853,-1.61,-0.04,7.06
46.927,-3.61,-0.12,8.16
46.975,-1.57,-3.84,9.96
47.003,-2.43,-0.35,4.98
47.033,-2.82,-0.39,6.67
47.072,-2.16,-0.16,7.73
47.101,0,-0.71,6.71
47.138,-3.3,0.71,7.22
47.168,-4.75,0.71,10.55
47.17,-4.86,-2.12,14.16
47.209,-1.33,-3.84,12.94
47.253,-4.51,4.04,11.38
47.287,-2.43,-2.94,15.49
47.317,-11.92,-3.3,11.96
47.383,-7.81,2.67,8.75
47.42,-4.28,-4.43,13.38
47.456,-3.53,-7.53,14.95
47.486,-6.86,-1.22,16.04
47.517,-1.61,-1.53,5.81
47.556,0.08,-2.35,4.9
47.596,0.59,-2.31,4.98
47.63,0.86,-2.31,5.41
47.669,3.37,-3.45,7.14
47.697,2.82,-3.18,10.59
47.734,0.71,-1.45,17.34
47.768,4.47,-4.79,12.71
47.805,4.39,-5.37,13.85
47.838,0.94,-1.06,13.69
47.871,-4.43,-10.32,11.92
47.902,-3.18,-4.39,8.32
47.937,-2.55,-0.2,10
47.966,-1.73,-2.08,11.18
47.995,-2.43,-3.77,10.24
48.037,-0.55,-2.2,6.16
48.069,-2.79,-0.82,5.73
48.098,-2.08,0.27,5.06
48.14,-0.27,-0.24,6.12
48.17,-2.43,-0.08,7.73
48.197,-2.08,-0.71,6.59
48.199,-3.77,0.12,10.94
48.244,-3.57,-0.94,12.08
48.282,-3.57,-4.86,14.2
48.309,-3.77,3.41,11.34
48.349,-4.35,-1.41,15.1
48.35,-8.16,-2.55,12.83
48.386,-10.55,2.59,7.57
48.421,-3.88,-4.04,9.69
48.466,-2.39,-6.9,13.73
48.496,-7.22,-1.69,16.55
48.536,-3.73,0,7.26
48.569,-0.55,-0.67,3.06
48.619,-1.22,-1.77,5.02
48.688,0.55,-3.02,4.67
48.755,0.82,-2.59,5.14
48.799,0.82,-2.59,5.96
48.833,2.12,-1.88,7.06
48.89,3.77,-3.3,11.14
48.956,-1.96,-2.12,17.97
48.999,0.78,-2.55,17.61
49.03,6.16,-5.61,13.73
49.034,1.84,0.24,12.63
49.063,-4.59,-4.24,10.9
49.095,-1.06,-2.51,9.02
49.136,-2.35,-0.12,6.39
49.165,-2.94,-0.04,7.1
49.199,-2.12,-0.43,5.45
49.23,-2.82,-1.22,8.36
49.234,-2.08,-0.39,6.94
49.265,-4.24,0.75,10.75
49.297,-5.33,-1.06,13.65
49.333,-1.69,-2.82,12.47
49.367,-5.96,2.9,12.4
49.401,-4.71,-1.65,14.47
49.441,-7.37,-4.08,14.08
49.474,-11.65,2.39,7.45
49.509,-5.57,-5.14,10
49.544,-1.73,-8.28,15.22
49.582,-5.45,-1.41,16.4
49.613,-3.88,1.18,6.9
49.642,0.16,-0.27,3.53
49.682,-1.14,-1.77,4.86
49.684,-0.67,-3.06,5.81
49.714,0.9,-2.79,5.3
49.746,2,-2.08,6.86
49.778,3.92,-2.63,8.12
49.818,3.33,-2.39,11.14
49.86,-1.33,-0.39,18.24
49.888,1.18,-4.51,15.42
49.941,4.82,-4.94,13.73
50.009,1.1,-1.18,12.51
50.045,-2.63,-10.47,10.04
50.077,-3.14,-1.73,10.79
50.08,-1.84,0.67,8.32
50.082,-1.92,-2.08,8
50.085,-2.9,-3.8,10.98
50.117,-2.43,-2.98,8.87
50.159,-0.67,-1.45,5.53
50.19,-1.53,0.35,5.65
50.228,-3.18,0.27,7.77
50.259,-3.18,0,8.75
50.295,-0.75,-0.82,7.1
50.328,-4.28,-0.08,10.75
50.361,-5.53,-0.9,12.94
50.392,-2.55,-2.79,13.3
50.428,-4.55,2.28,11.49
50.43,-6.9,-2.24,15.49
50.634,-10.59,0.94,10.63
50.679,-7.37,1.1,8.87
50.724,-1.84,-7.1,14.12
50.726,-0.98,-2.63,5.06
50.757,-0.24,-3.22,5.45
50.796,0.08,-2.08,5.92
50.827,1.65,-1.53,6.55
50.855,4.08,-3.02,8.59
50.89,3.3,-2.28,10.36
50.925,-1.33,-2.04,17.3
50.956,7.88,-4.43,14.04
50.992,5.1,-2.43,14.32
51.022,-4.55,-2.71,12.36
51.061,-5.41,-11.1,13.57
51.091,-2.79,-2.28,10.4
51.096,-0.27,0.2,6.35
51.138,-2.31,-1.18,9.65
51.171,-4.63,-4.43,9.69
51.217,-2.24,-2.12,7.49
51.287,-2.08,-0.08,5.33
51.326,-2.63,-0.27,5.61
51.616,-3.14,0.12,7.88
52.097,0.39,-0.55,6.51
52.144,-3.22,0.31,8.67
52.586,-3.1,0.12,9.45
52.618,-3.41,0.67,3.41
53.094,-0.35,-2.51,4.71
53.567,-0.55,-6.9,13.1
54.058,-4.2,-3.06,17.1
54.544,1.18,-3.02,13.42
54.546,-4.82,-2.24,14.91
54.581,-9.18,-0.98,11.92
54.587,-8.47,-0.51,9.26
54.623,-5.42,-2.35,7.77
54.624,-3.77,-3.49,13.22
54.66,-3.49,4.47,10.04
54.697,-5.73,-4.86,16.2
54.701,-10.83,-0.98,9.38
54.732,-8.2,3.14,8.43
54.77,-3.69,-5.22,13.02
54.806,-1.84,-5.45,15.22
54.841,-4.82,0.71,13.93
54.875,-4.43,1.14,4.79
54.915,1.57,-1.29,2.04
54.945,-1.65,-2.24,4.16
54.977,0.24,-3.22,5.14
55.009,0.71,-2.98,5.14
55.052,2.39,-2.59,7.3
55.092,3.37,-2.94,9.45
55.127,1.88,-0.9,13.06
55.162,-6.43,-1.18,19.38
55.165,3.61,-1.45,14.47
55.201,-8.28,-5.65,13.02
55.244,-4.86,-5.41,9.3
55.273,-1.73,-0.63,9.26
55.313,-2.71,-1.41,10.67
55.362,-3.41,-3.49,8.9
55.395,-1.57,-1.88,7.41
55.431,-2.9,-1.22,6.43
55.46,-1.92,-0.67,5.69
55.495,-0.94,-0.2,5.26
55.497,-4.12,0.24,8.2
55.537,-3.33,-0.16,8.75
55.567,-2.98,0.82,10.87
55.613,-3.37,-0.86,10.79
55.649,-5.49,-3.41,14.79
55.688,-1.73,-0.67,11.34
55.718,-4.39,2.04,13.45
55.761,-6.47,-3.26,12.83
55.792,-12.71,3.84,7.65
55.822,-3.73,-4.43,10.28
55.857,-1.84,-7.69,13.1
55.888,-6.12,-3.33,17.06
55.924,-3.37,0.39,9.49
55.959,-4.31,0.51,4.71
55.994,-0.12,-2.28,4.39
56.038,-0.98,-2.71,5.14
56.071,0.35,-3.3,5.26
56.126,2.71,-2.55,7.22
56.194,3.65,-2.55,9.22
56.249,2.94,-2.39,13.73
56.288,-7.06,-1.61,18.99
56.29,-7.49,-12,13.81
56.332,-2.75,-2.9,11.1
56.372,-1.1,1.18,8.04
56.407,-2.79,-1.73,10.59
56.442,-4.39,-4.35,9.85
56.444,-2.08,-0.08,5.06
56.491,-3.18,0.51,5.84
56.526,-2.86,-0.47,7.02
56.557,-1.45,-1.22,8.16
56.596,-2.55,-0.55,7.06
56.641,-3.02,0.35,10.28
56.674,-4.94,-1.1,13.02
56.711,-2.63,-4.2,13.22
56.752,-3.1,2.98,11.49
56.786,-7.14,-3.8,16.67
56.815,-9.77,-0.27,11.18
56.846,-10.36,2.63,7.02
56.849,-2.79,-5.73,9.96
56.885,-3.06,-6.59,14.95
56.916,-6.47,-1.8,16.71
56.957,-4.24,0,7.85
56.998,-0.63,-1.96,4.67
57.029,-1.49,-2.47,4.63
57.069,0.82,-3.02,4.51
57.104,0.75,-2.43,4.16
57.14,1.18,-1.73,5.06
57.178,1.88,-2.28,6.47
57.181,3.8,-2.86,9.26
57.214,-1.61,-1.37,17.73
57.245,4.39,-4.39,17.46
57.281,4.82,-3.8,12.87
57.318,-2.31,-0.39,14.59
57.356,-5.92,-11.45,15.46
57.389,0.47,-1.33,8.98
57.429,-4.04,1.37,7.53
57.464,-3.53,-2.08,13.14
57.501,-4.04,-5.37,12.55
57.536,-1.18,-3.02,9.26
57.539,-1.26,-0.86,5.96
57.571,-3.53,0.82,6.63
57.614,-2.55,0.94,6.94
57.68,-1.49,-0.35,5.88
57.723,-2.04,-1.49,5.88
57.724,-5.02,-1.33,15.34
57.77,-3.69,2.08,11.18
57.801,-2.94,2.2,13.93
57.837,-5.92,-6.16,15.89
57.886,-9.73,2.63,10.98
57.934,-9.22,2.59,6.63
57.97,-4.2,-6.79,11.65
58.005,-4.79,-6.98,14.95
58.075,-7.65,0.27,16.51
58.124,-4.82,2.16,6.86
58.169,0.04,-1.61,5.92
58.2,1.49,-2,6.98
58.237,3.22,-2.86,7.77
58.287,4.28,-2.63,9.89
58.322,-1.8,-1.26,14.63
58.324,-0.67,-4.24,16.04
58.361,4.08,-4.47,16.12
58.399,2.35,-2.28,13.3
58.428,-3.73,-6.75,14.67
58.457,-3.26,-3.57,7.14
58.492,-1.88,1.88,8.2
58.534,-1.45,-0.35,13.61
58.537,-1.84,-4.51,11.06
58.574,-0.98,-4.04,11.26
58.615,-2.67,-2.12,9.26
58.648,-1.88,-2.16,7.41
58.68,-1.53,-0.39,6.24
58.724,-2.75,-0.16,6.94
58.756,-1.96,-0.31,6.79
58.788,-3.02,-0.43,8.55
58.822,-1.96,-0.2,9.61
58.857,-3.26,-1.02,9.69
58.899,-3.26,-1.02,11.53
58.902,-3.37,-2.67,11.18
58.976,-4,2.82,11.41
59.012,-3.37,-2.47,13.69
59.014,-7.85,0.16,8.2
59.045,-7.81,-6.71,11.45
59.082,-3.06,-11.53,12.75
59.12,-1.8,-5.3,11.57
59.167,-5.57,0.78,11.69
59.198,-3.73,-0.98,8.16
59.239,-3.8,-3.41,6.75
59.276,-2.79,-4.98,7.41
59.307,0.04,-4.67,5.92
59.341,-0.27,-2.43,9.49
59.377,0.63,-2,10.24
59.412,0.16,-1.02,9.77
59.443,-1.26,-1.22,8.79
59.483,-1.26,-1.92,7.53
59.486,-1.8,-4.39,7.85
59.522,-5.69,-2.67,14.16
59.568,-4.16,-1.96,14.08
59.605,-2.51,-1.37,7.1
59.899,-2.24,-1.49,6.55
