NAME:,walk_1_1.csv,,
EXPERIMENT TIME:,25/05/2022 15:44,,
ACTIVITY TYPE:,Walking,,
COUNT OF ACTUAL STEPS,101,,
,,,
Time [sec],ACC X,ACC Y,ACC Z
0,1.26,1.92,-7.92
0.041,1.18,1.73,-8.63
0.082,0.08,1.61,-8.75
0.123,-0.43,1.57,-8.87
0.164,-1.73,4.12,-10.67
0.205,-2.79,3.53,-14.51
0.246,-4.43,3.84,-18.36
0.287,-7.34,3.65,-18.4
0.328,-9.89,0.78,-15.42
0.369,-5.88,0.75,-12.24
0.41,-2.2,3.22,-12.2
0.451,0.43,4.51,-12.63
0.492,0.31,2.2,-12.94
0.533,-0.86,0.55,-12.87
0.574,-1.65,1.69,-12.87
0.615,-0.35,0.67,-12.67
0.656,0,0.78,-11.73
0.697,-0.63,1.29,-10.47
0.738,0.27,0.39,-9.34
0.779,0.59,0.2,-7.77
0.82,0.63,2.51,-7.45
0.861,0.31,1.06,-7.73
0.902,-0.08,0.75,-7.45
0.943,1.53,2.82,-9.69
0.984,2.51,3.3,-13.1
1.025,-1.18,3.57,-14.44
1.066,-5.49,6.2,-13.73
1.107,-4.28,5.33,-13.96
1.148,-2.82,2.08,-14.32
1.189,-3.49,2.59,-12
1.23,-0.9,3.45,-11.06
1.271,-1.02,2.04,-9.14
1.312,-0.27,1.26,-8.79
1.353,0.12,1.61,-9.34
1.394,0.12,1.37,-10.16
1.435,-2.2,1.69,-10
1.476,-1.41,2.2,-11.14
1.517,-3.49,2.51,-11.22
1.558,-4.12,3.18,-11.53
1.599,-4.75,2.79,-11.41
1.64,-5.1,3.22,-11.96
1.681,-3.33,2.98,-13.42
1.722,-3.8,3.8,-14.24
1.763,-5.77,3.8,-12.98
1.804,-3.96,1.96,-13.06
1.845,-2.79,2.47,-12.87
1.886,-1.26,3.88,-14.04
1.927,-0.94,3.02,-14.32
1.968,-2.35,2.98,-13.65
2.009,-0.9,2.86,-13.93
2.05,-0.71,2.08,-12.83
2.091,0.75,0.63,-12.2
2.132,0.43,1.77,-10.55
2.173,1.33,0.35,-9.96
2.214,0.63,-0.47,-8.71
2.255,0.59,-0.51,-7.96
2.296,0.86,1.18,-8.12
2.337,1.57,-0.04,-8.04
2.378,1.53,0.86,-8.71
2.419,1.1,4.55,-11.65
2.46,2.28,5.41,-16.08
2.501,0.35,2.12,-16
2.542,-6.9,5.88,-13.85
2.583,-5.84,9.61,-12.36
2.624,-2.43,4.28,-14.4
2.665,-4.63,1.65,-13.14
2.706,-3.18,2.16,-11.26
2.747,-2.9,2.28,-9.92
2.788,-1.14,1.84,-9.73
2.829,-0.08,0.86,-9.49
2.87,-1.53,1.29,-9.57
2.911,-2.98,2.75,-10
2.952,-4.08,2.94,-9.49
2.993,-2.94,3.45,-10.2
3.034,-3.45,4.47,-11.57
3.075,-0.71,4.43,-15.42
3.116,-4.2,3.26,-15.14
3.157,-8.2,3.73,-14.83
3.198,-5.69,0.82,-13.3
3.239,-0.9,2,-12.94
3.28,0.31,2.79,-12.04
3.321,0.67,2.75,-11.61
3.362,0.31,2.28,-11.77
3.403,0,1.84,-12.08
3.444,-1.92,2.08,-11.65
3.485,-1.73,1.18,-11.22
3.526,-1.02,0.2,-10.47
3.567,-0.59,0.39,-9.77
3.608,-0.16,0.47,-9.1
3.649,0.2,0.75,-8.51
3.69,1.1,0.31,-8.94
3.731,1.14,1.14,-9.81
3.772,0.82,2.35,-11.18
3.813,2.43,1.8,-13.57
3.854,-0.08,3.02,-12.94
3.895,-3.06,5.22,-12.59
3.936,-6.08,7.96,-12.28
3.977,-4.98,5.61,-13.1
4.018,-4.04,2.9,-12.47
4.059,-2.43,4.2,-12.12
4.1,-1.53,3.3,-9.69
4.141,-0.78,2.51,-9.49
4.182,-1.22,2,-8.43
4.223,-0.86,2.04,-8.47
4.264,-0.35,2.59,-8.71
4.305,-0.63,2.98,-8.9
4.346,-1.02,2.59,-9.77
4.387,-1.14,2.86,-10.28
4.428,-1.65,3.3,-11.1
4.469,-2.98,4.2,-11.45
4.51,-3.41,3.61,-12.04
4.551,-3.49,3.41,-13.18
4.592,-3.41,3.3,-13.85
4.633,-6.35,2.63,-11.81
4.674,-5.69,2.28,-11.1
4.715,-2.82,2.59,-12.55
4.757,-2.82,4.16,-13.38
4.798,-1.69,2.51,-14.28
4.839,-2.67,2.98,-14
4.88,-2.08,3.06,-13.89
4.921,-1.33,2.16,-13.49
4.962,0.55,1.73,-12.2
5.003,1.02,1.73,-10.87
5.044,1.29,1.18,-9.34
5.085,1.65,0.78,-8.43
5.126,1.22,0.98,-7.57
5.167,0.71,1.57,-7.53
5.208,0.9,1.14,-8.47
5.249,0.08,2.98,-9.38
5.29,1.14,3.88,-12.87
5.331,-0.31,2.08,-15.1
5.372,-5.33,4.04,-13.57
5.413,-5.61,5.88,-12.63
5.454,-2.59,2.35,-12.79
5.495,-2.47,1.61,-12
5.536,-1.77,2.51,-11.22
5.577,-1.61,2.16,-9.77
5.618,-1.06,0.94,-9.22
5.659,-0.86,1.8,-9.77
5.7,-0.86,2.08,-10.98
5.741,-3.1,2.47,-11.18
5.782,-4.31,2.47,-11.41
5.823,-5.33,2.63,-10.47
5.864,-4,3.33,-10.51
5.905,-4.12,3.3,-10.4
5.946,-3.65,3.61,-11.18
5.987,-3.96,3.57,-13.14
6.028,-2.59,3.06,-15.06
6.069,-5.37,3.33,-13.57
6.11,-4.94,2.24,-12.32
6.151,-2.94,2.79,-11.89
6.192,0,2.79,-14.04
6.233,0.12,3.33,-14.36
6.274,-1.77,2.51,-12.87
6.315,-1.33,2.16,-12
6.356,-1.22,1.77,-11.1
6.397,-0.47,0.78,-10.32
6.438,1.26,0.86,-9.92
6.479,1.29,0.75,-8.79
6.52,0.67,0.59,-7.92
6.561,1.02,-0.16,-7.81
6.602,0.16,0.98,-8.39
6.643,0.82,1.37,-9.85
6.684,1.1,2.9,-12.24
6.725,1.14,2.75,-14.83
6.766,-1.65,3.96,-15.42
6.807,-3.77,5.57,-14.67
6.848,-6.43,7.41,-11.81
6.889,-4.04,4.43,-11.22
6.93,-3.49,4.39,-11.1
6.971,-1.92,4.51,-10.04
7.012,-1.26,2.71,-10.55
7.053,-2.04,2.55,-9.1
7.094,-1.18,2.51,-8.98
7.135,0.12,2.51,-9.18
7.176,-1.06,1.84,-9.81
7.217,-2.28,2.47,-10.04
7.258,-3.61,3.06,-9.96
7.299,-3.3,3.73,-10.28
7.34,-2.51,3.18,-10.59
7.381,-2.55,3.61,-10.67
7.422,-3.14,3.8,-10.94
7.463,-2.94,3.3,-11.65
7.504,-2.24,3.84,-13.57
7.545,-3.3,3.45,-13.73
7.586,-5.22,3.06,-12.79
7.627,-4.71,2.75,-11.53
7.668,-1.65,3.49,-12.36
7.709,-0.04,3.49,-13.61
7.75,-1.26,3.45,-13.61
7.791,-1.84,2.55,-13.38
7.832,-2.43,2.67,-12.32
7.873,-1.49,2,-11.81
7.914,-0.63,1.84,-10.51
7.955,1.29,1.14,-9.65
7.996,1.73,0.78,-8.24
8.037,2.24,0.39,-7.61
8.078,1.61,0.59,-6.98
8.119,1.1,1.69,-7.53
8.16,0.27,2.55,-8.55
8.201,-0.82,2.71,-10.47
8.242,0.16,4.86,-14.24
8.283,0.08,5.18,-18.51
8.324,-5.92,4.35,-15.97
8.365,-9.22,6.35,-12.36
8.406,-5.06,6.28,-12.94
8.447,-4.04,3.88,-11.61
8.488,-1.1,3.41,-10.59
8.529,-1.22,2.9,-9.14
8.57,-0.59,1.53,-8.63
8.611,-0.63,1.1,-8.55
8.652,-0.98,1.57,-9.38
8.693,-2.39,1.88,-9.65
8.734,-2.67,1.92,-10.2
8.775,-4,3.77,-10
8.816,-2.51,4.47,-10.36
8.857,-2.47,4.2,-10.04
8.898,-2.86,5.81,-10.59
8.939,-2.43,5.41,-11.57
8.98,-1.06,4.94,-14.24
9.021,-3.41,5.53,-13.81
9.062,-4.94,2.51,-11.41
9.103,-2.67,1.45,-11.06
9.144,-0.82,4.82,-12.12
9.185,0.2,3.88,-12.24
9.226,-1.65,2.79,-10.9
9.267,-0.9,2.39,-10.94
9.308,-0.63,1.96,-10.71
9.349,0.12,1.96,-10.87
9.39,0,0.63,-10.2
9.431,0.16,0.31,-10.04
9.472,0.08,0.63,-9.45
9.513,-0.67,1.29,-9.1
9.554,0.08,1.18,-9.85
9.595,-0.24,1.53,-10.24
9.636,1.06,2.2,-11.92
9.677,2.51,3.53,-14.24
9.718,-0.27,2.31,-14
9.759,-5.81,5.37,-10.63
9.8,-5.41,9.02,-10.71
9.841,-1.69,7.96,-11.26
9.882,-1.53,3.18,-10.55
9.923,-1.29,4.67,-10.55
9.964,-1.29,3.26,-9.02
10.005,-0.04,1.73,-9.02
10.046,-0.27,2.08,-8.55
10.087,0.04,2.31,-9.34
10.128,-0.75,2.39,-9.81
10.169,-2.35,2.82,-9.69
10.21,-3.41,4.16,-9.81
10.251,-3.1,3.92,-11.34
10.292,-4.86,3.8,-11.38
10.333,-5.22,3.88,-12.75
10.374,-3.96,4.86,-15.81
10.415,-6.47,2.63,-15.85
10.456,-7.53,2.16,-12.04
10.497,-3.61,1.84,-13.26
10.538,-2.28,4.51,-13.42
10.579,0.12,3.22,-15.38
10.62,-1.18,2,-14.51
10.661,-1.22,1.06,-13.1
10.702,-0.39,1.92,-11.77
10.743,0.47,0.9,-10.47
10.784,0.86,0.67,-9.45
10.825,1.65,0.63,-8.79
10.866,1.14,0.63,-7.88
10.907,1.57,0.24,-7.77
10.948,0.78,0.35,-7.96
10.989,0.78,0.67,-9.22
11.03,0.47,2.47,-10.4
11.071,2,3.18,-13.57
11.112,1.06,4.79,-17.46
11.153,-3.45,3.45,-16.12
11.194,-7.3,5.53,-13.81
11.235,-4.51,5.26,-14.63
11.276,-4.55,2.82,-12.91
11.317,-1.77,2.94,-12.24
11.358,-2.35,3.3,-10.16
11.399,-1.26,2.67,-9.22
11.44,-1.14,1.92,-8.55
11.481,-0.86,2.63,-9.18
11.522,-2.55,2.39,-9.53
11.563,-3.1,2.04,-10
11.604,-4.08,3.1,-10.59
11.645,-3.84,3.3,-10.47
11.686,-3.49,2.28,-10.47
11.727,-3.18,3.53,-10.55
11.768,-3.49,3.26,-11.3
11.809,-1.57,3.26,-14.08
11.85,-3.61,3.41,-14.08
11.891,-5.69,3.02,-13.34
11.932,-3.92,1.57,-13.26
11.973,-2.82,2.31,-15.06
12.014,-1.45,3.96,-15.14
12.055,-0.78,3.06,-15.57
12.096,-1.77,2.51,-14.4
12.137,-0.51,1.92,-13.45
12.178,0.04,1.26,-11.92
12.219,0.82,1.1,-10.51
12.26,1.49,1.06,-9.45
12.301,1.22,0.43,-7.92
12.342,1.45,0.12,-6.75
12.383,1.61,1.53,-6.59
12.424,1.57,0.67,-7.14
12.465,0.51,2.51,-8.87
12.506,0.59,3.45,-11.22
12.547,1.96,4.55,-15.73
12.588,-0.55,4.47,-19.22
12.629,-8.63,5.73,-16.2
12.67,-8.67,7.73,-13.93
12.711,-4.2,2.79,-14.16
12.752,-3.49,2.9,-12.43
12.793,-2.28,2.75,-11.34
12.834,-1.88,2.24,-9.69
12.875,-2,0.67,-8.47
12.916,-1.92,1.65,-9.02
12.957,-2.43,1.69,-9.38
12.998,-2.39,1.18,-10.24
13.039,-4.51,2.16,-10
13.08,-4.51,2.39,-10.04
13.121,-3.37,3.18,-10.98
13.162,-4.47,3.14,-11.02
13.203,-5.1,4.35,-11.77
13.244,-2.55,3.3,-13.81
13.285,-2.16,4.9,-15.02
13.326,-3.92,4.86,-13.69
13.367,-3.65,3.88,-12.43
13.408,-2.63,3.57,-12.75
13.449,1.49,2.9,-12.79
13.49,1.57,4.24,-12.43
13.531,-2.94,2.94,-10.87
13.572,-2,1.96,-11.77
13.613,-1.14,1.41,-11.49
13.654,-0.51,1.26,-10.75
13.695,-0.27,0.2,-9.41
13.736,0.78,0.71,-8.9
13.777,0.35,0.47,-7.53
13.818,1.45,0.47,-7.81
13.859,1.26,0.78,-8.32
13.9,1.45,2.2,-9.85
13.941,1.29,3.49,-11.77
13.982,1.88,5.02,-15.77
14.023,-2.82,4.86,-16.48
14.065,-8.51,8.36,-13.38
14.106,-6.12,7.34,-13.1
14.147,-4.9,4.98,-12.63
14.188,-2.16,3.69,-12.04
14.229,-1.41,2.59,-10.43
14.27,-0.71,1.92,-8.9
14.311,-0.27,1.14,-8.36
14.352,0,0.94,-7.85
14.393,-0.43,1.57,-9.14
14.434,-2.31,1.37,-9.85
14.475,-4.35,4.47,-10.98
14.516,-6.28,4.43,-10.24
14.557,-2.98,3.73,-10.94
14.598,-2.86,4.55,-10.51
14.639,-2.31,4.94,-10.59
14.68,-2.24,4.86,-12.2
14.721,-1.26,4.98,-14.83
14.762,-6.32,4.47,-13.34
14.803,-6.43,2.59,-11.26
14.844,-0.82,4.35,-13.38
14.885,-0.82,4.86,-14.59
14.926,-1.49,2.86,-15.14
14.967,-2.51,2.79,-14
15.008,-2.55,2.71,-12.47
15.049,-1.49,2.63,-11.73
15.09,0.71,1.92,-10.4
15.131,1.57,1.69,-9.1
15.172,2,0.78,-7.61
15.213,2.71,0.75,-6.71
15.254,2.47,1.92,-6.55
15.295,2.16,1.53,-7.34
15.336,1.18,3.18,-8.08
15.377,2.63,1.92,-11.26
15.418,1.65,4.28,-16.12
15.459,-0.35,6.98,-20.01
15.5,-6.86,8.32,-20.01
15.541,-11.45,9.06,-14.95
15.582,-6.63,5.33,-13.22
15.623,-4.39,4.2,-11.45
15.664,-1.41,3.06,-10.51
15.705,-2.12,2.71,-9.38
15.746,-1.57,1.73,-8
15.787,-1.22,0,-9.06
15.828,-2.2,0.59,-9.53
15.869,-2.47,0.39,-10.08
15.91,-4.04,3.02,-9.96
15.951,-3.41,2.47,-9.49
15.992,-3.41,4.63,-9.06
16.033,-0.86,5.02,-9.89
16.074,-1.45,5.49,-10.87
16.115,-2.59,5.84,-12.28
16.156,-2.08,5.61,-15.1
16.197,-7.06,6.08,-14.55
16.238,-6.63,3.96,-11.57
16.279,-2.47,2.63,-11.38
16.32,-0.16,3.69,-11.45
16.361,1.26,3.8,-12.98
16.402,-1.69,2.47,-11.92
16.443,-1.26,1.69,-11.89
16.484,-1.29,0.9,-11.02
16.525,-1.29,0.16,-10.28
16.566,-0.71,-0.08,-9.92
16.607,-0.24,0.39,-9.14
16.648,0.47,0.35,-8.39
16.689,0.98,0.55,-8.24
16.73,0.55,2.04,-8.32
16.771,0.35,2.24,-10.55
16.812,-0.2,2.2,-11.41
16.853,0.71,3.69,-15.34
16.894,-1.22,4.08,-16.51
16.935,-7.45,7.3,-13.34
16.976,-7.26,9.73,-11.53
17.017,-4.31,6.12,-11.77
17.058,-3.33,4.98,-11.53
17.099,-1.49,4,-10.98
17.14,-1.92,2.71,-9.1
17.181,-1.41,1.57,-8.16
17.222,-1.45,2.35,-7.88
17.263,-0.39,2.51,-9.02
17.304,-1.53,2.08,-9.49
17.345,-1.88,2.2,-9.57
17.386,-2.71,2.94,-9.26
17.427,-2.04,3.65,-9.57
17.468,-1.92,4.51,-9.92
17.509,-2.16,4.55,-10.36
17.55,-1.33,4.28,-12.51
17.591,-1.69,4.9,-15.81
17.632,-5.88,4.67,-12.4
17.673,-6.08,1.73,-10.98
17.714,-1.33,3.1,-12.79
17.755,-2.79,5.06,-12.63
17.796,-1.41,2.98,-13.42
17.837,-2.9,3.57,-12
17.878,-0.9,2.35,-11.53
17.919,-1.02,1.69,-11.49
17.96,0.71,1.22,-10
18.001,0.08,1.26,-8.87
18.042,0.9,1.02,-8.55
18.083,0.71,0.78,-8.16
18.124,0.43,0.71,-8.47
18.165,-0.43,2.24,-8.71
18.206,0.24,2.24,-9.85
18.247,0.16,4.31,-11.34
18.288,2.39,4,-15.53
18.329,0.43,3.8,-17.22
18.37,-6.28,6.55,-13.18
18.411,-5.77,9.96,-10.71
18.452,-2.28,5.69,-11.49
18.493,-3.26,1.92,-10.63
18.534,-2.35,2.16,-11.14
18.575,-1.22,1.06,-10.16
18.616,-1.65,0.51,-8.39
18.657,-0.47,0.59,-8.55
18.698,-0.63,2.08,-8.59
18.739,-1.53,1.53,-8.51
18.78,-2.31,2.86,-9.34
18.821,-3.88,3.41,-9.65
18.862,-4.39,4.12,-11.34
18.903,-6.04,4.63,-12.08
18.944,-6.35,4.28,-12.83
18.985,-2.82,4.98,-15.18
19.026,-3.06,4.75,-15.49
19.067,-5.96,4.98,-12.94
19.108,-3.92,2.94,-12.94
19.149,-3.41,4.47,-13.77
19.19,-0.04,2.67,-15.93
19.231,-0.86,2.35,-14.71
19.272,-0.67,1.37,-13.53
19.313,-1.1,0.82,-11.57
19.354,-0.12,0.16,-10.59
19.395,0.27,-0.04,-9.45
19.436,1.26,0.24,-8.67
19.477,1.61,0.27,-7.73
19.518,2.08,-0.51,-6.98
19.559,1.02,0.9,-7.26
19.6,0.78,1.22,-8.24
19.641,0.27,1.69,-9.65
19.682,0,3.02,-11.61
19.723,0.63,5.14,-16.67
19.764,-0.27,5.02,-20.01
19.805,-8.32,6.04,-16.91
19.846,-9.02,5.96,-14
19.887,-5.65,3.37,-13.65
19.928,-4.9,3.57,-11.85
19.969,-2.31,3.41,-10.79
20.01,-1.53,2.79,-9.3
20.051,-1.8,1.96,-8.32
20.092,-1.49,1.26,-8.16
20.133,-1.57,0.98,-9.02
20.174,-2.59,2.35,-10.08
20.215,-3.45,2.39,-10.24
20.257,-3.96,3.14,-9.96
20.298,-2.79,3.14,-10.2
20.339,-2.59,4,-11.06
20.38,-3.57,3.77,-11.89
20.421,-2.35,4.16,-15.26
20.462,-3.69,5.65,-16.55
20.503,-4.43,3.41,-13.18
20.544,-3.69,2.51,-12.08
20.585,-1.77,2.59,-12.51
20.626,-0.16,3.37,-13.85
20.667,-1.92,0.94,-13.18
20.708,-2.16,1.61,-12.4
20.749,-1.18,1.69,-11.69
20.79,-0.35,0.43,-10.63
20.831,0.71,-0.31,-9.73
20.872,0.82,0.27,-8.63
20.913,1.29,0.12,-7.92
20.955,0.16,0.59,-7.22
20.996,-0.71,1.77,-8.24
21.037,-2.04,2.82,-9.1
21.078,-2,2.24,-10
21.119,-1.22,3.92,-12.71
21.16,-1.57,3.92,-15.77
21.201,-3.45,2.79,-15.73
21.242,-6.16,3.65,-12.08
21.283,-3.37,4.59,-11.14
21.324,-2.75,4.12,-10.83
21.365,-1.02,3.57,-11.69
21.406,-1.29,2.31,-10.75
21.447,-0.31,2.71,-6.75
21.488,-1.8,2.24,-8.9
21.529,-1.29,2.28,-9.61
21.57,-1.8,2.31,-10.04
21.611,-2.39,2.79,-10.75
21.652,-4.71,4.24,-10.75
21.693,-4.86,3.84,-10.36
21.734,-3.73,3.49,-10.75
21.775,-3.49,3.96,-11.18
21.816,-3.49,4,-11.45
21.857,-2.67,4.31,-13.38
21.898,-1.57,3.57,-14.95
21.939,-5.1,4,-13.18
21.98,-3.8,2.55,-12.12
22.021,-2,2.55,-12.91
22.062,0.31,3.1,-14.4
22.103,1.1,2.2,-15.1
22.144,-0.59,0.78,-12.94
22.185,-0.9,1.73,-11.96
22.226,-1.18,1.37,-10.51
22.267,0.39,0.39,-10.28
22.308,0.55,0.31,-9.22
22.349,1.29,0.27,-8.55
22.39,1.18,0.35,-7.85
22.431,0.9,1.26,-8.12
22.473,0.55,0.9,-8.59
22.514,0.43,2.16,-9.38
22.555,0.67,2.9,-10.94
22.596,0.39,3.45,-13.26
22.637,0.43,4.75,-17.65
22.678,-0.67,3.45,-19.97
22.719,-7.77,5.02,-15.22
22.76,-6.47,6.04,-11.69
22.801,-3.45,3.3,-11.02
22.842,-1.8,3.96,-10.79
22.883,-0.55,3.3,-10.16
22.924,-2.2,1.45,-9.26
22.965,-1.57,0.43,-9.3
23.006,-2.9,0.82,-9.18
23.047,-2.82,1.8,-10.08
23.088,-3.3,1.84,-10.2
23.129,-3.3,2.86,-10.28
23.17,-2.82,3.45,-10.08
23.211,-1.77,2.94,-10.24
23.252,-2.51,3.33,-10.47
23.293,-2.9,3.8,-10.94
23.334,-2.79,3.8,-12.67
23.375,-2.51,3.65,-14.44
23.416,-3.41,3.45,-14.28
23.457,-4.43,3.37,-13.18
23.498,-2.55,1.92,-12.71
23.539,-1.88,2.08,-12.24
23.58,-0.08,3.1,-13.77
23.621,-1.1,1.49,-12.98
23.662,-1.73,1.37,-12.04
23.703,-1.33,0.94,-10.9
23.744,-0.35,0.39,-10.24
23.785,1.73,0.43,-9.85
23.826,2.2,0.35,-8.83
23.867,1.18,0.35,-7.57
23.908,0.35,0.39,-7.3
23.949,-0.08,1.02,-7.81
23.99,0.51,1.8,-9.41
24.031,0.2,2.16,-10.87
24.072,1.69,3.61,-15.53
24.113,1.22,5.53,-20.01
24.154,-5.61,2.55,-17.02
24.195,-8.51,7.3,-11.65
24.236,-2.51,5.61,-11.73
24.277,-3.41,4.79,-10.67
24.318,-1.06,3.41,-10.59
24.359,-1.96,1.96,-9.73
24.4,-2.16,1.22,-9.34
24.441,-2.47,1.06,-9.18
24.482,-1.96,0.9,-9.57
24.523,-2.55,1.61,-10.2
24.564,-3.1,1.49,-10.43
24.605,-4.28,2.51,-10.24
24.646,-2.94,3.73,-10.16
24.687,-2.16,4.12,-9.73
24.729,-2.04,4.51,-10.51
24.77,-4.31,4.55,-10.83
24.811,-2.86,4.47,-14.51
24.852,-3.73,4.94,-15.93
24.893,-4.43,4.08,-14.04
24.934,-3.14,3.06,-11.53
24.975,-0.08,1.29,-12.2
25.016,1.41,1.45,-12.36
25.057,0.94,2.04,-11.57
25.098,-0.27,1.57,-10.71
25.139,-2.2,2.08,-10.28
25.18,-2.55,1.33,-10.32
25.221,-0.12,-0.27,-9.92
25.262,0.35,0.16,-9.06
25.303,0.98,0.43,-8.9
25.344,0.98,0.43,-8.67
25.385,0.47,0.86,-9.34
25.426,-0.24,1.73,-9.96
25.467,-0.04,2.35,-11.73
25.508,-0.39,3.88,-14.32
25.549,0.82,5.49,-17.93
25.59,-2.94,4.28,-15.38
25.631,-5.41,6.04,-11.02
25.672,-2.39,5.92,-10.79
25.713,-2.86,4.79,-10.51
25.754,-1.22,2.82,-10.75
25.795,-1.88,1.73,-9.69
25.836,-1.84,1.26,-9.18
25.877,-2.24,1.45,-8.67
25.918,-1.45,0.98,-9.61
25.959,-2.39,1.26,-9.92
26,-2.28,1.33,-10.75
26.041,-3.73,3.88,-9.89
26.082,-2.08,3.1,-9.69
26.123,-1.73,3.06,-9.41
26.164,-1.8,3.65,-9.65
26.205,-2,3.1,-10.36
26.246,-1.45,3.77,-13.61
26.287,-2.12,4.75,-16.32
26.328,-6.67,4.63,-14.2
26.369,-6.9,1.88,-11.69
26.41,-2,2.28,-12.67
26.451,-0.86,5.69,-13.02
26.492,1.61,3.33,-14.63
26.533,-0.82,0.47,-12.24
26.574,-0.12,1.37,-12
26.615,-0.98,1.45,-10.59
26.656,-0.12,0.55,-10.08
26.697,0.31,0,-9.02
26.738,0.67,0.82,-8.36
26.779,1.29,0.43,-8.16
26.821,1.02,0.24,-7.92
26.862,0.67,0.55,-8.75
26.903,0.82,-0.04,-9.77
26.944,1.26,1.65,-12.08
26.985,0.55,4.55,-15.65
27.026,0.63,4.43,-20.01
27.067,-5.26,2.04,-17.53
27.108,-12,6.59,-12.94
27.149,-2.9,5.18,-12.94
27.19,-3.37,2.9,-10.55
27.231,-1.45,3.45,-10.08
27.272,-0.86,3.1,-8.71
27.314,-2.08,1.53,-8.04
27.355,-1.84,0.78,-8.24
27.396,-2.82,1.69,-10.12
27.437,-3.14,1.84,-11.06
27.478,-4.71,2.43,-10.83
27.519,-4.35,2.9,-10
27.56,-2.2,3.22,-10.36
27.601,-1.02,3.69,-10.32
27.642,-2.04,3.45,-10.98
27.683,-0.71,3.37,-14.95
27.724,-2.67,3.53,-15.49
27.765,-6.2,3.96,-12.83
27.806,-3.49,0.94,-12.2
27.847,-1.88,3.45,-13.06
27.888,-0.47,2.55,-13.06
27.929,-1.73,2,-11.77
27.97,-1.1,1.92,-11.41
28.011,-0.59,1.33,-10.75
28.052,-0.04,0.47,-10.12
28.093,0.78,-0.04,-9.69
28.134,0.27,0.16,-8.63
28.175,0.86,-0.43,-8
28.216,0.71,0.51,-7.81
28.257,0.78,0.71,-8.98
28.298,0.51,1.53,-10.98
28.339,0.47,2.08,-13.26
28.38,1.57,3.41,-17.73
28.421,-0.55,1.61,-17.34
28.462,-8.39,5.06,-13.34
28.503,-3.69,6.51,-12.83
28.544,-3.22,5.53,-11.18
28.585,-1.02,2.94,-11.1
28.626,-2.31,3.37,-9.02
28.667,-1.45,2.43,-9.18
28.708,-1.8,1.29,-8.75
28.749,-2.16,1.1,-9.81
28.79,-3.1,1.69,-10.75
28.831,-4.63,2.28,-10.94
28.872,-6.04,3.18,-10.32
28.913,-3.06,3.1,-10.71
28.954,-1.8,3.69,-10.55
28.995,-1.73,3.61,-10.9
29.036,-4.24,4.9,-11.45
29.077,-2.43,3.92,-14.36
29.118,-1.65,2.9,-15.46
29.159,-4.59,4.12,-12.75
29.2,-1.77,3.22,-12.79
29.241,-1.77,3.8,-12.98
29.282,-0.67,4.43,-13.45
29.323,-1.02,1.8,-11.73
29.364,-0.24,2,-11.1
29.405,-0.08,1.77,-10.28
29.446,0.67,1.06,-10
29.487,0.35,0.27,-8.98
29.528,0.47,0.47,-8.24
29.569,1.22,0.43,-7.81
29.61,0.71,0.12,-7.88
29.651,0.55,0.75,-9.22
29.692,0.98,1.8,-11.73
29.733,-1.49,3.65,-13.18
29.774,-0.82,3.3,-15.3
29.815,-0.75,4,-17.85
29.856,-4.39,6.39,-14.44
29.897,-7.1,7.57,-10.51
29.938,-3.84,5.26,-11.3
29.979,-4.63,5.61,-10.67
30.02,-2.59,3.65,-10.98
30.061,-3.02,3.33,-9.81
30.102,-2.47,2.47,-9.53
30.144,-1.69,1.92,-8.67
30.185,-1.33,1.69,-9.02
30.226,-2.39,2.86,-8.83
30.267,-1.88,3.22,-9.45
30.308,-3.3,2.63,-9.34
30.349,-2.71,4.2,-10.87
30.39,-4,3.53,-10.9
30.431,-4.75,5.1,-11.89
30.472,-3.18,5.92,-14.75
30.513,-1.69,4.75,-16.79
30.554,-5.02,4.82,-13.89
30.595,-3.61,2.28,-12.08
30.636,-2.08,1.49,-10.71
30.677,0.86,2.94,-11.89
30.718,-0.27,1.92,-11.41
30.759,-1.49,1.88,-10.98
30.801,-0.24,0.55,-10.75
30.842,-0.47,0.94,-8.87
30.883,0.86,0.35,-9.49
30.924,0.78,-0.04,-8
30.965,0.39,0.71,-7.3
31.006,0.16,1.65,-7.45
31.048,0.63,1.73,-8.9
31.089,0.31,2.35,-10.9
31.13,2.35,3.96,-16.87
31.171,-1.37,3.41,-18.04
31.212,-7.92,5.02,-15.53
31.253,-7.85,9.26,-15.18
31.294,-3.22,3.61,-12
31.335,-2.35,3.06,-9.69
31.376,-2.59,4,-7.57
31.417,0.16,1.96,-7.57
31.458,-1.02,1.45,-6.67
31.499,-0.47,2.16,-9.06
31.54,-1.22,2.16,-11.34
31.581,-4.39,3.33,-11.69
31.622,-5.65,2,-10.94
31.663,-4.55,3.37,-10.16
31.704,-2.35,3.73,-10.24
31.745,-1.88,2.82,-9.89
31.786,-2.86,3.22,-11.02
31.827,-0.98,4.08,-15.38
31.868,-3.18,3.92,-15.46
31.909,-6.75,3.57,-12.94
31.95,-2.94,-0.04,-12.94
31.991,-1.92,3.14,-13.34
32.032,-1.57,1.06,-12.63
32.073,-1.73,0.51,-11.18
32.114,-0.94,1.65,-10.98
32.155,0.59,1.29,-10.79
32.196,0.59,0.67,-10.04
32.237,1.69,0.04,-9.69
32.278,1.29,0.2,-8.75
32.319,0.43,0.27,-8.24
32.36,0,1.02,-8.71
32.401,0.08,1.69,-10.32
32.442,-0.55,1.57,-11.34
32.483,-0.78,3.1,-14.04
32.524,0.59,3.26,-17.65
32.565,-4.59,2.2,-13.96
32.606,-6.79,5.41,-11.14
32.647,-4.59,6.79,-11.49
32.688,-1.77,3.57,-11.85
32.729,-2.47,2,-10.2
32.77,-3.26,3.37,-9.22
32.811,-1.73,2.28,-8.59
32.852,-2,2.24,-7.92
32.893,-0.86,2.75,-9.18
32.935,-2.04,3.45,-10
32.976,-2.55,2.28,-10.67
33.017,-3.33,2.35,-10.16
33.058,-3.37,2.98,-10.04
33.099,-2.2,3.73,-10.9
33.14,-3.53,2.94,-10.32
33.181,-3.84,4.2,-11.06
33.222,-0.98,4.12,-14.63
33.263,-2.67,3.77,-15.46
33.304,-5.41,2.51,-13.45
33.345,-4.04,0.94,-12.71
33.386,-1.49,3.61,-13.96
33.427,-1.57,2.47,-12.63
33.468,-0.08,1.8,-12.16
33.51,-0.43,1.96,-10.16
33.551,0.2,1.77,-10.67
33.592,0.51,0.59,-9.61
33.633,0.78,0.86,-9.06
33.674,1.06,0.55,-8.16
33.715,0.35,0.86,-7.85
33.756,0.12,0.9,-8.16
33.797,-0.43,1.96,-8.87
33.838,-0.04,1.77,-10.08
33.879,-1.06,2.16,-11.73
33.92,-1.45,3.22,-13.96
33.961,-1.53,4.98,-18.87
34.002,-3.92,4.59,-18.91
34.043,-8.67,2.94,-12.71
34.084,-7.06,5.26,-9.85
34.125,-3.18,5.57,-10.71
34.166,-2.2,4.08,-10.36
34.207,-1.49,2.28,-9.85
34.248,-2.24,2.28,-8.75
34.289,-1.77,1.06,-8.67
34.33,-2.16,1.29,-9.1
34.371,-1.1,1.8,-10.67
34.412,-2.28,3.1,-10.67
34.453,-2.51,2.51,-9.92
34.494,-1.96,3.96,-9.49
34.535,-0.82,3.57,-8.94
34.576,-0.39,4.39,-9.69
34.617,-2.28,3.02,-10.36
34.658,-3.33,3.49,-11.49
34.699,-3.26,4.71,-14.16
34.74,-3.14,3.69,-14.32
34.781,-6.39,4.16,-12.94
34.822,-7.1,1.92,-10.36
34.863,-1.92,2.98,-12.2
34.904,-1.77,4.04,-11.77
34.945,-0.08,3.57,-13.69
34.986,-3.14,0.86,-11.26
35.027,-2.51,1.26,-10.98
35.068,-1.06,1.45,-10.71
35.109,-0.08,0.27,-9.73
35.15,0.47,0.71,-9.26
35.191,0.71,0.47,-8.71
35.232,0.43,0.39,-8.2
35.273,0.51,1.26,-8.71
35.314,-0.04,1.49,-9.45
35.355,-0.08,1.53,-10.75
35.396,-0.51,2,-12.2
35.437,0.39,3.14,-15.69
35.478,0.24,3.92,-18.63
35.519,-5.14,3.61,-14.75
35.56,-7.41,6.32,-11.22
35.601,-2.08,4.31,-12.24
35.643,-3.77,3.61,-10.2
35.684,-0.98,3.65,-10.36
35.725,-1.45,2.55,-9.1
35.767,-1.29,1.41,-8.04
35.809,-0.71,0.82,-8.36
35.85,-1.69,1.92,-9.49
35.891,-2.04,2.16,-10.9
35.932,-4.24,2.82,-10.47
35.973,-4.35,3.53,-10.28
36.014,-2.47,3.69,-10.36
36.055,-3.06,3.77,-10.16
36.096,-3.14,3.77,-11.22
36.137,-1.88,5.06,-15.26
36.178,-3.06,5.26,-17.65
36.219,-6.2,2.98,-13.42
36.26,-5.57,1.02,-10.87
36.301,-1.45,3.57,-13.14
36.342,-0.12,4.28,-13.57
36.383,0.59,2.31,-13.57
36.424,-1.84,1.06,-11.41
36.466,-0.59,1.61,-11.81
36.507,-1.1,0.39,-10.79
36.548,0.2,-0.24,-10.12
36.589,0.2,-0.04,-8.83
36.63,1.29,0.04,-7.85
36.671,2.12,-0.08,-7.49
36.712,1.22,0.86,-7.61
36.753,0.59,1.84,-8.59
36.794,1.26,1.61,-10.55
36.835,0.71,3.88,-14.71
36.876,1.61,3.8,-20.01
36.917,-3.49,3.77,-17.22
36.958,-11.26,7.45,-13.61
36.999,-4.94,5.69,-13.34
37.04,-3.02,1.53,-11.61
37.081,-2.43,2.82,-10.87
37.122,-0.75,3.45,-9.34
37.163,-0.24,1.06,-9.1
37.204,-1.18,0.16,-8.55
37.245,-1.33,0.82,-10.2
37.286,-2.98,1.45,-10.32
37.327,-3.96,2.39,-10.98
37.368,-6.08,4.04,-10.28
37.409,-3.26,3.84,-11.14
37.45,-1.77,3.92,-11.14
37.491,-1.77,3.73,-11.89
37.532,-4,3.84,-11.38
37.573,-1.61,3.8,-14.04
37.614,-2,3.41,-14.87
37.656,-6.43,4.04,-12.24
37.697,-4.08,1.73,-12.12
37.738,-1.29,2.47,-13.3
37.779,1.18,3.06,-14.79
37.82,0.16,0.98,-14.83
37.861,-2.16,0.47,-12.59
37.902,-2.75,0.86,-10.79
37.943,-0.12,0.78,-10.28
37.984,0.86,0.08,-9.02
38.025,1.73,0.55,-8.47
38.066,1.14,1.02,-7.57
38.107,1.45,0.71,-7.57
38.148,0.9,1.18,-7.88
38.189,1.02,1.37,-10.04
38.23,0.71,1.06,-11.73
38.271,0.51,3.22,-13.89
38.312,2.55,3.45,-18.59
38.353,-2,2.67,-17.5
38.394,-7.49,6.39,-14.87
38.435,-6.94,6.67,-12.94
38.476,-3.18,1.49,-12.24
38.517,-2.35,3.22,-11.77
38.558,-1.88,3.18,-10.04
38.599,-1.26,1.57,-9.14
38.64,-0.43,0,-8.36
38.681,-0.63,2.12,-9.38
38.722,-1.88,1.22,-10.28
38.763,-3.3,1.49,-10.59
38.804,-4.28,2.9,-10.12
38.845,-2.86,3.77,-10.9
38.886,-2.28,3.26,-10.75
38.927,-2.55,3.06,-11.3
38.968,-4.31,3.33,-11.3
39.009,-2.2,3.57,-14.28
39.05,-2.98,4.04,-15.14
39.091,-6.39,4.04,-12.79
39.132,-4.79,0.94,-12.63
39.173,-1.84,2.63,-14.71
39.214,-0.67,2.55,-15.93
39.255,-0.51,0.78,-15.57
39.296,-1.26,1.06,-13.73
39.337,-0.9,1.37,-12.63
39.378,-0.12,0.31,-11.41
39.419,0.98,-0.04,-10.36
39.46,0.82,0.2,-8.79
39.501,1.65,0.2,-7.81
39.542,2.31,-0.31,-6.98
39.583,2,0.04,-7.1
39.624,2.04,1.22,-8.51
39.665,0.78,1.57,-10.32
39.706,0.55,2.86,-13.14
39.747,2.16,3.49,-18.44
39.788,-2.82,2.75,-20.01
39.829,-9.73,6.35,-15.65
39.87,-7.02,5.69,-14.47
39.911,-4.28,1.69,-12.32
39.952,-2.2,3.1,-10.75
39.993,-0.16,3.57,-9.49
40.034,-1.22,1.37,-8.98
40.075,-2.59,1.06,-8.47
40.116,-2.9,1.77,-10.47
40.157,-4.2,1.69,-10.83
40.198,-4.98,1.92,-10.63
40.239,-4.2,2.9,-10.12
40.28,-2.55,2.9,-10.24
40.321,-2.51,3.3,-11.3
40.362,-2.9,3.26,-12.4
40.403,-3.06,4.31,-15.89
40.444,-3.53,3.73,-16.32
40.485,-5.02,2.39,-13.96
40.526,-3.18,1.02,-12.63
40.567,-0.63,0.31,-13.53
40.608,1.26,1.33,-13.85
40.649,1.57,1.18,-13.14
40.69,-0.39,0,-9.85
40.731,0.59,0.78,-9.65
40.772,0.51,0.24,-8.83
40.813,1.06,0.08,-8.75
40.854,1.53,0.04,-9.02
40.895,0.27,1.37,-9.18
40.936,0.35,1.06,-9.65
40.977,-0.63,1.26,-10.12
41.018,-1.1,2.24,-11.69
41.059,-1.65,1.96,-12.87
41.1,-1.29,3.49,-14.67
41.141,0.82,4.86,-17.81
41.182,-2.55,1.96,-14.95
41.223,-6.67,3.69,-11.53
41.264,-3.02,3.18,-12.4
41.305,-4.43,3.53,-10.32
41.346,-0.16,1.69,-10.08
41.387,-0.98,2.63,-8.36
41.428,-0.24,3.02,-8.08
41.469,-0.67,1.92,-8.04
41.51,-0.63,2.2,-10.08
41.551,-2.39,3.33,-11.34
41.592,-3.96,2.9,-11.45
41.633,-4.9,2.94,-10.87
41.674,-2,4.24,-11.02
41.715,-0.98,3.18,-10.12
41.756,0,3.33,-9.81
41.797,-1.29,2.94,-9.3
41.838,-0.51,2.86,-11.96
41.879,-0.94,3.1,-15.61
41.92,-5.69,3.3,-14.59
41.961,-7.92,1.65,-13.06
42.002,-1.65,1.96,-14.98
42.044,-1.96,3.37,-13.49
42.085,-1.49,1.29,-12.83
42.126,-2.75,1.29,-10.75
42.167,-0.51,2.16,-10.83
42.208,0.78,1.33,-10.32
42.249,1.49,0.24,-10.2
42.29,1.02,-0.24,-8.94
42.331,0.35,0,-8.2
42.373,0.82,-0.08,-7.96
42.414,1.37,0.75,-10.12
42.455,0.75,0.98,-11.3
42.496,2,1.33,-14.24
42.537,1.41,1.8,-15.77
42.578,-3.57,3.02,-13.45
42.619,-5.26,6.12,-12.79
42.66,-2.82,7.45,-13.18
42.701,-1.77,3.37,-12.16
42.742,-1.06,3.77,-11.81
42.783,-1.33,2.79,-10
42.824,-1.14,2.24,-8.55
42.865,-0.63,2.2,-8.71
42.906,-0.04,0.9,-9.3
42.947,-0.86,1.26,-10.32
42.988,-2.94,3.02,-11.1
43.029,-4.82,3.26,-11.26
43.07,-5.33,3.53,-10.67
43.111,-2.51,2.67,-10.83
43.152,-2.94,3.88,-10.59
43.193,-2.75,4.24,-11.89
43.234,-1.06,3.69,-15.26
43.275,-4.86,4.94,-14.75
43.316,-6.75,4.08,-13.18
43.357,-1.92,0.78,-13.81
43.398,-1.41,4.28,-14.28
43.439,0.51,3.53,-14.75
43.48,-0.78,2.12,-13.22
43.521,-0.12,1.88,-12.71
43.562,-0.31,0.78,-11.85
43.603,0.94,0.24,-11.02
43.644,1.06,-0.55,-8.98
43.685,0.67,0.08,-7.85
43.726,1.33,-0.63,-7.14
43.767,1.22,-0.51,-6.83
43.808,2.04,0.98,-8.39
43.849,2.59,1.02,-10.47
43.89,3.37,0.9,-14.24
43.931,4.47,0.39,-20.01
43.972,-7.3,5.14,-17.69
44.013,-9.73,11.06,-16.67
44.054,-4.2,4.79,-14.75
44.095,-1.33,2.67,-12.94
44.136,-1.37,3.84,-11.26
44.177,-0.2,1.92,-9.81
44.218,-1.96,1.57,-7.65
44.259,-1.69,1.33,-8.47
44.3,-2.24,2.35,-9.73
44.341,-3.26,2.39,-10.2
44.382,-4.82,4.12,-11.14
44.423,-4.51,2.71,-11.26
44.464,-2.9,2.59,-11.57
44.505,-3.1,4.16,-11.57
44.546,-2.12,2.86,-13.22
44.587,-0.78,3.41,-16.44
44.628,-4.16,4.08,-14.79
44.669,-6.28,3.65,-13.42
44.71,-2.55,0.31,-13.93
44.751,-0.24,3.37,-15.65
44.792,1.02,2.31,-15.42
44.833,-0.08,1.49,-13.53
44.874,-0.63,0.31,-11.34
44.915,1.06,0.12,-10.75
44.956,0.82,-0.31,-8.79
44.997,2.12,-0.2,-8.55
45.038,1.92,0,-6.98
45.079,1.84,-0.16,-6.83
45.12,1.22,-0.04,-7.45
45.161,1.96,0.2,-9.69
45.202,1.45,0.94,-12.08
45.243,0.24,2,-15.22
45.284,0.04,3.65,-19.93
45.325,-3.37,2.08,-19.53
45.366,-9.18,6.75,-14.95
45.407,-3.96,4.86,-14.24
45.448,-0.63,2.28,-12.28
45.489,-1.37,4.39,-9.65
45.53,0.51,2.51,-10.12
45.571,-2.43,0.86,-7.96
45.612,-1.96,1.1,-8.79
45.654,-2,0.16,-9.69
45.695,-3.26,1.57,-10.75
45.736,-4.39,2.63,-11.38
45.777,-6.35,2.71,-10.36
45.818,-3.33,2.39,-10.36
45.859,-2.2,2.94,-10.4
45.9,-1.92,3.33,-11.38
45.941,-1.41,4.31,-14.91
45.982,-1.57,3.69,-16.44
46.023,-5.33,3.53,-14.75
46.064,-3.22,0.43,-14.32
46.105,-1.84,2.9,-14.75
46.146,0,1.92,-14.44
46.187,1.37,1.69,-13.34
46.228,-0.04,1.26,-11.1
46.269,0.39,1.73,-10.71
46.31,1.06,0.94,-10.28
46.351,1.53,-0.63,-9.92
46.392,1.22,-1.06,-8.71
46.433,0.16,0.16,-7.96
46.474,1.06,-0.04,-8.28
46.515,1.06,0.63,-9.65
46.556,1.06,1.1,-11.45
46.597,2.12,1.1,-14.2
46.638,3.65,1.45,-18.2
46.679,-3.45,3.06,-15.1
46.72,-7.53,5.3,-14.98
46.761,-5.14,7.37,-14.2
46.802,-0.39,1.26,-13.02
46.843,-3.65,1.77,-11.02
46.884,-1.84,2.55,-9.73
46.925,-2.08,0.67,-8.36
46.966,-1.8,0.31,-8.75
47.007,-2.12,1.1,-9.45
47.048,-3.65,2.71,-9.45
47.089,-2.75,1.84,-9.89
47.13,-3.3,1.06,-10.98
47.171,-4.59,1.88,-12
47.212,-6.28,3.73,-13.22
47.253,-2.59,3.3,-15.85
47.294,-5.18,3.96,-14.98
47.335,-4.71,3.37,-14.98
47.376,-1.88,5.49,-10.71
47.417,-2.51,3.53,-15.93
47.458,-0.59,2.82,-14.44
47.499,-0.27,1.88,-13.1
47.54,-2.16,2.43,-11.73
47.581,0.94,1.14,-12.83
47.622,0,-0.63,-11.34
47.663,1.33,-1.33,-10.79
47.704,0.2,-1.06,-8.67
47.745,0.43,0.47,-7.65
47.787,2.31,-0.39,-7.73
47.829,2.51,-0.35,-8.32
47.87,2.2,1.45,-9.85
47.911,3.14,1.61,-12.28
47.952,4,2.9,-17.14
47.993,-2.47,2.43,-18.79
48.034,-7.37,5.81,-18.08
48.075,-7.14,4.86,-15.42
48.116,-3.3,0.08,-14.4
48.157,-3.02,1.53,-12.28
48.198,-1.45,2.79,-11.41
48.239,-1.77,1.37,-10
48.28,-2.43,0.24,-9.65
48.321,-3.3,0.75,-10.59
48.362,-4.31,1.02,-10.87
48.403,-6.16,2.12,-10.4
48.444,-6.43,2.16,-9.65
48.485,-3.41,3.33,-11.41
48.526,-4.55,3.84,-10.83
48.567,-2.43,3.14,-14.12
48.608,-2.71,4.94,-17.38
48.649,-6.24,4.12,-15.61
48.69,-3.69,-0.16,-16.51
48.731,-1.8,2.79,-15.97
48.772,-2.16,2.9,-16.67
48.813,-0.86,0.47,-14.67
48.854,1.41,1.26,-13.89
48.895,1.53,2.16,-12.63
48.936,0.67,0.27,-11.49
48.977,0.9,-0.43,-10.67
49.019,0.78,-0.43,-9.65
49.06,0.55,-0.16,-7.53
49.101,0.94,0.08,-6.67
49.142,2.55,-0.35,-7.14
49.183,2.35,1.49,-7.85
49.224,3.06,2,-10.51
49.265,5.49,1.77,-15.77
49.306,-0.43,3.61,-18.16
49.347,-7.85,7.41,-18.95
49.388,-7.22,7.1,-17.1
49.429,-6.35,1.57,-14.63
49.47,-4.08,0.98,-11.96
49.511,-1.14,2.31,-11.81
49.552,-1.8,2.16,-9.92
49.593,0.08,1.73,-10.12
49.634,-1.65,-0.94,-9.73
49.675,-3.14,0.43,-10.08
49.716,-5.84,2.94,-10.24
49.757,-6.63,2.75,-9.73
49.798,-3.45,2.59,-11.45
49.839,-5.37,4.67,-12.16
49.88,-4.12,2.63,-13.61
49.921,-3.33,4.2,-17.93
49.962,-6.86,3.8,-14.95
50.003,-6.39,1.73,-13.42
50.044,-0.39,2.24,-14.87
50.085,0.16,3.41,-15.34
50.126,-1.06,2.08,-15.18
50.167,-0.08,1.26,-14.36
50.208,-0.47,1.69,-13.14
50.249,-0.08,0.63,-11.92
50.29,0.08,-0.39,-11.18
50.331,0.67,-0.24,-10.28
50.372,0.55,-0.55,-8.59
50.413,0.98,-0.16,-7.73
50.454,2.28,-0.43,-7.96
50.495,2.55,0.04,-8.9
50.536,1.29,0.9,-9.77
50.578,2.55,2.51,-13.42
50.619,2.86,2.98,-16.2
50.66,-5.96,4.71,-14.75
50.701,-5.92,6.94,-15.1
50.742,-4.98,7.02,-14.79
50.783,-4.2,2.35,-12.32
50.824,-2.51,2.75,-12.2
50.865,-2.08,1.88,-10.59
50.906,-0.9,1.65,-10.75
50.947,-2.12,1.41,-10.4
50.988,-4.16,2.55,-10.28
51.029,-5.65,3.3,-10.32
51.07,-4.98,3.53,-9.65
51.111,-2.71,4.16,-10.55
51.152,-5.02,5.06,-10.63
51.193,-4.39,2.51,-12.08
51.234,-3.02,3.96,-18.04
51.275,-5.88,4.12,-14.55
51.316,-8.59,0.63,-13.1
51.357,0.47,-1.22,-16.71
51.398,-1.61,-1.96,-15.81
51.439,-3.41,-3.18,-14.87
51.48,0.24,-3.14,-14.91
51.521,-3.06,-4.43,-11.81
51.562,-1.61,-0.24,-12.83
51.603,-3.61,-3.1,-10.16
51.644,-2.51,-6.75,-9.65
51.685,-4.9,-3.49,-7.85
51.726,-5.3,-1.92,-6.75
51.767,-4.16,-3.41,-6.51
51.808,-5.37,-1.45,-5.1
51.849,-7.02,-4.2,-5.33
51.89,-7.65,-2.82,-5.69
51.931,-7.57,-2.71,-10.75
51.972,-8,-6.94,-9.89
52.013,-1.92,-4,-6.04
52.054,-4.35,4.94,-10.9
52.095,-7.65,5.88,-8.87
52.136,0.2,0.04,-12
52.177,0.94,-6.67,-11.65
52.218,0.12,-9.26,-10.71
52.259,-1.73,-3.73,-13.53
52.3,-1.53,-1.73,-15.1
52.341,-1.1,1.53,-18.24
52.382,-4.94,5.84,-17.61
52.423,-3.26,4.79,-18.51
52.464,-5.1,1.29,-18.36
52.505,-7.45,1.8,-17.93
52.546,-4.55,3.06,-20.01
52.587,-7.37,3.53,-15.73
52.628,-7.3,3.77,-11.1
52.669,0.59,1.29,-10.79
52.71,-0.47,7.96,-12
52.751,-1.37,4.47,-12.47
52.792,0.55,-0.24,-13.26
52.833,0.47,-0.71,-13.53
52.874,0.75,-0.27,-13.89
52.915,0.39,-0.31,-11.96
52.956,1.88,0,-11.77
52.997,1.06,0.27,-10.28
53.038,0.94,-0.39,-9.49
53.079,1.26,-1.1,-8.55
53.12,1.57,0.2,-8.75
53.161,0.94,0.98,-8.63
53.202,1.84,2.28,-11.69
53.243,7.81,0.2,-16.87
53.284,-2.82,-0.78,-13.73
53.325,-7.3,2.59,-10.83
53.366,-1.29,6.59,-14.24
53.407,-4.98,6.12,-10.51
53.448,-0.16,0.47,-11.41
53.489,-3.77,2.67,-10.08
53.53,-0.86,0.47,-11.38
53.571,-3.06,0.08,-11.14
53.613,-3.53,1.02,-11.81
53.654,-4.79,1.77,-11.3
53.695,-5.14,1.65,-10
53.736,-3.53,2.16,-9.49
53.777,-3.37,2.35,-10
53.818,-2.86,1.57,-11.45
53.859,-2,2.31,-14.28
53.9,1.06,1.06,-18.71
53.941,-7.26,2.2,-13.02
53.982,-2.16,0.39,-14.08
54.023,-0.47,1.92,-13.77
54.064,-0.16,0.35,-11.61
54.105,0,1.22,-9.81
54.146,0.63,2.47,-9.02
54.187,1.29,0.78,-8.83
54.228,0.27,0.16,-9.26
54.269,0.35,-0.08,-10.79
54.31,-1.33,-0.55,-11.45
54.351,-2.35,-1.14,-10.55
54.392,-1.1,-0.2,-9.38
54.433,1.8,0.43,-10.79
54.474,2.24,-0.63,-11.22
54.515,1.18,-0.75,-10.16
54.556,7.02,2.71,-17.42
54.597,1.77,1.14,-14.67
54.638,-6.47,4.2,-11.92
54.679,-1.29,7.18,-13.22
54.72,2.59,2.63,-13.57
54.761,-2.04,0.71,-11.18
54.802,-0.63,0.59,-10.83
54.843,-1.53,1.26,-9.26
54.884,-1.22,1.33,-9.89
54.925,-2.75,1.96,-10.04
54.966,-2.86,0.82,-10.43
55.007,-4.35,1.45,-10.28
55.048,-4.43,2.9,-10.67
55.089,-2.51,2.79,-11.3
55.13,-2.59,3.92,-12.2
55.171,-1.41,4.71,-15.02
55.212,-0.24,4.55,-18.01
55.253,-3.33,4.24,-16.79
55.294,-1.53,1.49,-16.79
55.335,-1.65,0.31,-16
55.376,1.02,1.37,-15.49
55.417,1.88,1.57,-14
55.458,3.06,0.31,-12.47
55.499,2.94,-0.39,-10.04
55.54,3.49,-1.33,-8.2
55.581,2.55,-1.06,-7.69
55.622,-0.31,0.9,-6.51
55.663,0.55,-0.55,-7.41
55.704,-3.41,1.18,-7.57
55.745,-3.96,1.96,-8.47
55.786,-4.79,2.75,-8.83
55.827,-4.67,2.55,-9.45
55.868,-3.77,2.47,-10
55.909,-5.02,3.84,-10.59
55.95,-1.37,3.45,-18.2
55.991,8.04,0.04,-20.01
56.032,-15.85,5.45,-14.87
56.073,-14,4.9,-8.9
56.114,13.85,0.39,-16.51
56.155,1.33,-1.41,-12.83
56.196,-6.04,-0.67,-5.18
56.237,1.61,0.98,-9.85
56.278,-2.47,-0.12,-7.69
56.319,0.2,0.31,-10.55
56.36,-0.43,-0.24,-10.43
56.401,-1.61,0.9,-10.24
56.442,-1.49,3.06,-10.59
56.483,-1.49,3.18,-10.55
56.524,-1.06,1.69,-11.3
56.565,-2,3.41,-12.32
56.606,-2.35,4.2,-12.87
56.647,0.27,3.96,-16.87
56.688,-2.43,4.75,-15.26
56.729,-5.49,1.69,-12.08
56.77,-2.86,0.55,-12.67
56.811,0.75,1.22,-13.06
56.852,0.27,-0.27,-10.98
56.893,2.55,-0.55,-11.34
56.934,2.63,0.24,-10.67
56.975,0.31,-0.39,-10.04
57.016,-0.35,-0.67,-10.28
57.057,-1.33,0.16,-10.28
57.098,0.04,0.94,-11.06
57.139,-1.02,-0.04,-10.28
57.18,-0.67,0.08,-9.96
57.221,-1.37,1.26,-9.73
57.262,-0.86,1.73,-9.02
57.303,-0.51,1.69,-8.59
57.344,-0.75,2.08,-8.39
57.385,-0.08,2.08,-8.63
57.426,0.47,1.77,-10.94
57.467,4.9,2.47,-17.46
57.508,6.24,-2.82,-20.01
57.549,-11.77,2.35,-19.61
57.59,-14.95,12.87,-11.65
57.631,13.85,-0.04,-13.65
57.672,-4.08,-0.27,-4.08
57.713,-4,2.12,-2.82
57.754,4,3.06,-7.45
57.795,-0.86,1.26,-5.41
57.836,2.24,0.27,-10.08
57.877,-0.67,-1.14,-10.67
57.918,-2.24,0.24,-12.55
57.959,-2.35,3.57,-12.43
58,-1.65,5.88,-12.59
58.041,-0.98,3.92,-11.38
58.082,-0.35,4.67,-12.98
58.123,1.45,4.39,-17.42
58.164,-3.84,4.43,-15.46
58.205,-4.86,2,-13.57
58.246,-2.47,3.73,-13.61
58.287,-0.35,2.98,-12.36
58.328,0.71,2.51,-11.49
58.369,1.84,1.8,-10.71
58.41,3.37,0.98,-10.63
58.451,2.12,-0.63,-8.83
58.492,1.84,-0.2,-9.38
58.533,0.71,0.24,-9.06
58.574,0.08,-0.51,-8.36
58.615,1.41,-0.35,-8.67
58.656,0.47,1.18,-8.98
58.697,1.18,1.14,-10.08
58.738,0.27,0.59,-11.18
58.779,1.73,1.06,-13.77
58.82,4.63,1.96,-20.01
58.861,-3.61,-0.27,-20.01
58.902,-13.34,2.9,-15.06
58.943,-9.14,7.06,-11.61
58.984,5.02,1.77,-12.4
59.026,-1.06,1.69,-8.08
59.067,-0.67,1.14,-7.3
59.108,-0.04,1.26,-7.53
59.149,-1.92,1.92,-7.34
59.19,-0.43,3.3,-9.26
59.231,-1.02,1.8,-9.77
59.272,-2.04,3.33,-10.75
59.313,-0.08,3.45,-12.63
59.354,-0.16,4.75,-14.59
59.395,1.41,3.45,-16.04
59.436,-1.33,4.63,-15.34
59.477,-3.49,4.86,-12.87
59.518,-0.82,3.26,-13.38
59.559,0.51,2.47,-13.26
59.6,1.92,0.71,-12.75
59.641,1.37,0.04,-10.98
59.682,1.02,0.78,-9.92
59.723,1.73,1.22,-9.81
59.764,1.49,0.75,-9.38
59.805,1.88,-0.12,-9.22
59.846,1.45,-0.12,-9.1
59.887,0.2,0.59,-9.14
59.928,-0.78,0.55,-8.67
59.969,-0.12,0.59,-9.57
60.01,-1.37,1.41,-9.73
60.051,-0.63,1.84,-11.81
60.092,-1.1,2.75,-13.85
60.133,1.41,2.43,-19.38
60.174,-2.94,1.29,-18.04
60.215,-9.34,5.45,-13.42
60.256,-6.86,8.16,-12.12
60.297,4.16,2.08,-12.36
60.338,-0.27,1.84,-9.69
60.379,-0.47,1.69,-10
60.42,-0.2,1.88,-8.79
60.461,0.04,1.88,-9.06
60.502,1.8,1.53,-9.57
60.543,1.8,2.04,-9.96
60.584,2.24,1.53,-9.96
60.625,1.49,3.14,-9.06
60.666,0.04,5.06,-8.75
60.707,0.08,1.69,-8.12
60.748,-1.1,3.3,-9.22
60.79,-0.04,2.71,-11.34
60.831,0.71,3.73,-14.75
60.872,1.49,1.1,-17.77
60.913,-4.98,1.49,-13.57
60.954,-4.16,2.2,-11.96
60.995,0.98,2.04,-12.55
61.036,-0.16,2,-11.18
61.077,0.04,0.67,-10.43
61.118,-0.39,0.31,-9.65
61.159,-0.04,0.55,-9.49
61.2,-1.18,1.06,-9.22
61.241,-0.98,0.2,-8.98
61.282,-0.51,0.16,-8.67
61.323,-0.94,0.86,-9.22
61.364,-0.24,0.98,-10.04
61.405,-0.12,0.47,-10.16
61.446,0.39,0.39,-10.98
61.487,2.35,2.47,-14.79
61.528,3.84,1.77,-18.4
61.569,-3.88,1.45,-13.38
61.61,-6.51,4.24,-12.4
61.651,6.16,2.98,-14.59
61.692,3.96,-0.43,-10.55
61.733,0.12,1.06,-8.04
61.774,0.98,-0.08,-8.51
61.815,-0.78,0.63,-7.37
61.856,2.24,0.9,-9.14
61.898,0.9,0.12,-9.22
61.939,0.43,0.43,-10.24
61.98,-0.75,1.18,-9.96
62.021,-0.51,1.96,-10.04
62.062,-0.98,1.69,-10
62.103,-1.88,1.61,-9.92
62.144,-1.92,2.51,-11.1
62.185,-0.78,2.55,-14.75
62.226,0,1.73,-18.44
62.267,-5.84,2.2,-16.08
62.308,-6.12,0.47,-12.87
62.349,0,-0.59,-14.32
62.39,2.04,-0.75,-13.38
62.431,2.51,-1.49,-12.75
62.472,-0.63,-2.55,-10
62.513,1.57,-1.1,-10.28
62.554,1.1,-0.67,-10.16
62.595,-0.31,-0.94,-10
62.636,-0.71,-0.43,-8.98
62.677,-0.35,0.47,-9.77
62.718,-1.57,-0.24,-9.69
62.759,-2.12,0,-9.81
62.8,-0.71,-0.04,-10.08
62.841,0.27,0.31,-11.69
62.882,1.37,0.31,-14.2
62.923,2.94,-0.71,-15.65
62.964,-1.45,-0.71,-11.57
63.005,-0.71,3.88,-11.18
63.046,3.73,5.18,-12.98
63.087,1.02,-0.08,-12.4
63.128,-1.37,0.35,-11.18
63.169,-0.75,3.1,-10.87
63.21,-0.94,1.65,-10.04
63.251,-0.9,0.47,-10.24
63.292,-1.49,0.94,-11.02
63.333,-1.77,0.86,-10.9
63.374,-1.96,0.75,-10.47
63.415,-2.12,0.98,-9.81
63.456,-2.04,1.57,-9.45
63.497,-1.65,1.77,-10.08
63.538,-1.49,0.94,-11.1
63.579,-1.06,1.33,-12.63
63.62,-0.47,1.33,-15.1
63.661,-2.75,1.69,-14.51
63.702,-5.81,1.37,-12.08
63.743,-2.16,0.98,-12.59
63.784,-0.39,0.78,-12.94
63.825,-0.27,0.67,-12.83
63.866,-0.16,0.08,-12.94
63.907,-1.73,0.08,-12.55
63.949,-0.39,-0.31,-12.59
63.99,0.08,-0.98,-12.24
64.031,-0.39,-1.22,-11.1
64.072,0.04,-0.71,-10.75
64.113,-0.04,-1.22,-9.81
64.154,0.16,-1.06,-9.38
64.195,0.67,-0.75,-9.73
64.236,1.45,-1.33,-10.28
64.277,3.14,-1.37,-11.61
64.318,3.8,0.71,-13.89
64.359,2,0.71,-13.96
64.4,-2.82,1.41,-12.47
64.441,-1.92,6.16,-13.45
64.482,0.08,5.45,-11.77
64.523,0.59,2.47,-10.63
64.564,-0.78,3.33,-10.51
64.605,-0.94,2,-10.63
64.646,-1.92,1.96,-10.47
64.687,-0.9,1.1,-10.71
64.729,-1.45,1.33,-10.59
64.77,-1.8,2.08,-10.98
64.811,-2.35,1.29,-10.47
64.852,-2.16,1.45,-10.2
64.893,-1.8,1.88,-10.59
64.934,-1.92,2.39,-11.53
64.975,-1.29,1.88,-13.65
65.016,-2.79,2.2,-14.79
65.057,-5.84,2.39,-15.22
65.098,-6.2,1.69,-12.98
65.139,-1.26,0.39,-13.96
65.18,-1.14,1.8,-13.38
65.221,1.33,1.29,-13.93
65.262,-1.22,0.27,-12.32
65.303,0.78,0.67,-13.14
65.344,-0.04,0.16,-12.91
65.385,0.04,-1.14,-12.16
65.426,0.43,-1.49,-11.73
65.467,0.39,-1.33,-10.16
65.508,0.78,-0.67,-9.96
65.549,0.82,-0.9,-8.94
65.59,1.61,-1.84,-8.51
65.631,3.92,-0.78,-10.55
65.672,5.65,-0.75,-11.85
65.713,5.69,0.71,-14.67
65.754,0.27,1.88,-15.06
65.795,-3.53,5.33,-15.81
65.836,-3.22,9.06,-16.44
65.877,-2.24,1.61,-14.2
65.918,-2.47,2.71,-12.51
65.959,-1.57,2.63,-11.49
66,-1.45,2,-10.71
66.041,-1.02,1.14,-10.36
66.082,-1.8,0.16,-9.18
66.123,-1.18,0.71,-9.18
66.164,-1.29,0.63,-9.34
66.205,-1.14,0.71,-9.34
66.246,-2.08,0.94,-9.18
66.287,-1.77,2.43,-10.9
66.328,-2.04,3.69,-12.91
66.369,-1.06,2.43,-15.14
66.41,-3.61,2,-15.22
66.451,-5.77,2.12,-13.34
66.492,-3.73,1.57,-12.94
66.533,-0.12,0.55,-13.81
66.574,1.18,0.86,-13.57
66.615,1.65,-0.75,-12.59
66.656,-0.16,-0.35,-10.24
66.697,0.63,1.06,-10.32
66.738,0.98,1.22,-10.9
66.779,0.59,-1.14,-10.36
66.82,0.51,-1.37,-10.63
66.861,0.55,-0.55,-10.51
66.902,-0.2,-0.24,-10.04
66.943,0.47,0.51,-10.67
66.984,1.02,-0.9,-11.34
67.025,2.98,-1.41,-13.49
67.066,3.77,-2.16,-14.16
67.107,-1.29,0.39,-12.12
67.148,-4.28,5.88,-12.12
67.189,1.26,5.14,-12
67.23,5.22,0.39,-11.73
67.271,-0.9,4.2,-11.06
67.312,-0.75,3.53,-12.04
67.354,-5.18,5.41,-11.3
67.395,-0.31,1.61,-11.14
67.436,-1.65,1.61,-10.32
67.477,-0.78,0.51,-10.67
67.518,-2.08,0.78,-10.12
67.559,-1.41,0.27,-9.89
67.6,-2.55,1.06,-9.1
67.641,-2.2,2.94,-10.9
67.682,-1.65,3.1,-12.55
67.723,0.31,0.31,-14.91
67.764,-2.28,2.28,-14.44
67.805,-4.98,3.3,-12.91
67.846,-2.24,2.79,-12.91
67.887,-0.43,2.9,-12.87
67.928,1.96,1.8,-14.24
67.969,-1.41,0.27,-12.43
68.01,-0.43,0.55,-12.36
68.051,-0.08,0.31,-11.61
68.092,0.67,-0.94,-11.26
68.133,0.94,-1.53,-10.36
68.174,0.71,-1.49,-9.65
68.215,0.94,-0.78,-9.22
68.256,0.9,-0.63,-8.63
68.297,1.49,-1.18,-9.34
68.338,2.31,-0.67,-11.14
68.379,3.92,-0.31,-13.85
68.42,4.08,0.08,-15.02
68.461,-1.26,2.47,-13.22
68.502,-3.84,7.65,-13.96
68.543,-0.86,6.71,-14.4
68.584,-0.31,1.77,-12.67
68.625,-0.94,2.28,-11.06
68.666,-1.06,2.2,-10.04
68.707,-1.45,1.77,-8.9
68.748,0,0.82,-9.73
68.789,-0.98,0.51,-9.69
68.83,-0.71,0.55,-10.47
68.871,-1.96,1.02,-10
68.912,-2.16,1.88,-9.96
68.953,-2.04,2.12,-9.81
68.994,-1.22,2.16,-10.71
69.035,-1.65,2.71,-12.2
69.076,-1.26,2.47,-13.96
69.117,-2.08,1.73,-15.34
69.158,-4.63,1.88,-13.34
69.199,-3.33,1.22,-13.18
69.24,-0.31,2.12,-14.2
69.281,-0.2,1.57,-14.08
69.322,-0.43,-0.39,-12.71
69.363,0.51,0.94,-12.71
69.404,-0.04,1.18,-12.2
69.445,1.14,-0.43,-12
69.486,1.14,-0.78,-11.06
69.527,1.06,-0.75,-10.16
69.568,0.9,-0.98,-9.02
69.609,0.51,-0.9,-8
69.65,1.65,-0.94,-8.28
69.691,3.49,-0.67,-10.47
69.732,3.53,-0.94,-12.83
69.773,3.26,-0.04,-15.14
69.814,0.24,1.26,-15.02
69.855,-4.79,4.82,-13.22
69.896,-1.69,7.18,-14.28
69.937,1.02,3.06,-14.08
69.978,-0.9,1.33,-11.06
70.019,-0.2,2.59,-10.51
70.06,-1.33,1.41,-8.79
70.101,-1.06,1.49,-9.22
70.142,-0.86,1.29,-9.65
70.183,-1.29,0.98,-10.47
70.224,-1.49,0.43,-10.51
70.265,-2.31,0.71,-9.81
70.306,-1.53,1.33,-9.77
70.347,-1.88,2.31,-10.55
70.388,-1.61,2.75,-12.32
70.429,-0.9,2.35,-15.02
70.47,-4,0.24,-17.06
70.511,-5.73,2.47,-13.38
70.552,-4.2,1.77,-13.81
70.593,-0.59,0.98,-14.32
70.634,-0.86,0.75,-13.73
70.675,-0.04,0.9,-13.38
70.716,-0.82,1.53,-12.59
70.757,-0.08,0.43,-12
70.798,1.14,0.12,-11.53
70.839,1.77,-0.47,-10.55
70.88,1.45,-0.31,-9.92
70.921,1.33,-0.51,-9.06
70.962,0.35,-0.51,-8.28
71.003,1.45,-0.47,-9.57
71.044,2.12,-0.63,-11.18
71.085,3.18,-0.75,-13.57
71.126,4,-1.22,-14.32
71.167,-2.35,2.43,-11.77
71.208,-2.51,6.35,-13.38
71.249,0,3.45,-13.81
71.29,-1.41,1.49,-12.47
71.331,-1.06,2.35,-11.57
71.372,-1.18,2.24,-10.47
71.413,-0.71,0.86,-9.49
71.454,-0.51,1.1,-9.85
71.495,-0.24,0.47,-10.16
71.536,-0.55,0.71,-10.47
71.577,-1.37,1.18,-10.36
71.618,-2.51,1.45,-10
71.659,-2.63,1.53,-10.59
71.7,-2.24,2.67,-13.38
71.741,-1.37,0.43,-15.97
71.782,-4.04,0.75,-15.26
71.823,-7.65,2.43,-12.83
71.864,-3.53,1.53,-12.51
71.905,0.04,1.26,-13.89
71.946,-0.9,2.47,-14
71.987,-0.39,-0.98,-13.45
72.028,-0.47,-0.2,-12.12
72.069,0.82,0.82,-12.12
72.11,1.88,-0.43,-11.45
72.151,2.2,-1.14,-10.9
72.192,1.8,-0.04,-10.43
72.233,0.27,-0.78,-9.06
72.274,0,-0.98,-9.06
72.315,1.26,-0.2,-10.67
72.356,1.33,-1.1,-10.98
72.397,2.75,-0.94,-12.98
72.438,4.04,0.71,-14.16
72.479,0.63,2.16,-12.36
72.52,-3.88,5.14,-12.04
72.561,-0.12,6.55,-15.46
72.602,-1.37,2.59,-13.61
72.643,-1.29,0.59,-11.18
72.684,-1.88,2.51,-10.04
