NAME:,yoniwal1.csv,,
EXPERIMENT TIME:,Tue May 24 16:48:04 GMT+03:00 2022,,
ACTIVITY TYPE:,Walking,,
COUNT OF ACTUAL STEPS:,74,,
,,,
Time [sec],ACC X,ACC Y,ACC Z
718.69,1.57,9.14,2.31
718.74,1.65,9.18,2.2
718.79,1.73,9.1,2.16
718.85,1.57,9.22,2.2
718.9,1.18,9.3,1.84
718.96,1.22,9.34,1.18
719.01,1.33,9.41,1.69
719.07,1.57,9.1,1.92
719.12,1.41,9.41,2.0
719.17,1.14,9.18,2.0
719.23,1.45,9.14,1.84
719.28,1.92,9.22,0.98
719.34,2,9.14,1.22
719.39,1.33,9.14,1.8
719.44,0.08,9.26,2.12
719.5,0.71,9.89,1.84
719.55,0.67,9.02,2.08
719.6,0.86,9.26,1.61
719.66,0.2,9.73,1.92
719.71,0.12,9.38,1.69
719.77,0.12,9.34,1.57
719.82,0.35,9.14,1.69
719.88,0.12,9.3,2.28
719.93,0.08,9.06,1.77
719.98,-0.08,9.85,1.92
720.04,-0.27,10.51,1.8
720.09,1.65,10.24,1.18
720.15,-0.31,11.22,2.04
720.2,2.47,12.2,1.33
720.25,2.16,8.24,1.06
720.31,1.84,10.24,1.73
720.36,1.37,9.65,1.18
720.41,1.96,8.59,0.75
720.47,2.55,8.59,1.73
720.52,1.41,7.45,2.98
720.58,1.29,7.26,3.1
720.63,1.33,7.14,3.61
720.68,1.18,6.9,4.43
720.74,1.18,7.96,4.86
720.79,1.69,9.06,4.47
720.85,1.77,11.06,5.3
720.9,-0.12,8.51,8.67
720.96,6.43,11.38,4.39
721.01,5.18,13.85,4.59
721.06,2.39,4.55,1.45
721.12,3.37,10.75,0.24
721.17,1.41,7.69,2.0
721.22,1.26,8,1.84
721.28,1.06,8.43,1.06
721.33,-0.08,9.3,1.88
721.39,1.53,9.06,1.33
721.44,0.98,8.79,1.88
721.49,0.2,9.1,2.31
721.55,0.78,8.87,1.61
721.6,0.43,10.55,2.43
721.66,-1.14,10.43,2.39
721.71,2.31,13.26,0.55
721.76,0.35,11.65,1.41
721.82,3.8,9.57,1.22
721.87,2.08,9.14,1.33
721.92,2.82,8.47,0.16
721.98,2.59,8.36,0.59
722.03,2.63,8.43,2.12
722.09,1.49,8.2,3.1
722.14,1.02,7.45,3.02
722.2,1.37,6.47,3.84
722.25,1.29,7.49,4.98
722.3,0.75,7.81,5.37
722.36,2.24,8.71,4.59
722.41,1.53,10.63,6.47
722.46,4.24,11.92,2.86
722.52,5.3,11.92,5.88
722.57,2.51,5.3,1.65
722.63,3.77,9.96,0.08
722.68,0.86,5.77,4.63
722.73,1.37,7.81,1.33
722.79,0.04,8.63,2.31
722.84,0.71,8.28,1.88
722.89,0.51,8.75,2.28
722.95,0.98,9.38,1.88
723,0,8.63,2.31
723.06,-0.08,9.34,1.8
723.11,1.18,9.81,1.84
723.16,-0.71,10.28,2.24
723.22,0.75,10.4,0.47
723.27,0.59,11.96,1.73
723.33,5.14,11.41,0.63
723.38,2.98,9.49,1.8
723.43,1.53,9.1,2.71
723.49,2,8.28,0.12
723.54,1.84,8,1.14
723.59,3.69,8.04,2.24
723.65,1.96,7.96,3.18
723.7,0.86,6.59,4.43
723.76,1.14,6.55,4.51
723.81,1.26,7.3,4.47
723.86,2.28,8.71,4.63
723.92,2.2,11.02,4.79
723.97,0.98,9.89,7.65
724.02,7.81,11.96,-0.59
724.08,4.94,8.51,3.49
724.13,2.79,5.69,0.86
724.18,2.67,10.75,1.1
724.24,1.69,6.83,1.22
724.29,0.86,7.92,1.92
724.35,1.29,8.59,1.77
724.4,0.78,9.61,2.04
724.45,-0.16,8.98,2.28
724.51,0.16,8.71,2.12
724.56,0.75,8.79,1.92
724.61,1.1,9.02,1.69
724.67,0.2,10.12,1.06
724.72,-1.49,10.47,2.71
724.78,1.14,11.26,0.75
724.83,-0.2,12.98,1.45
724.88,5.69,11.41,-0.51
724.94,1.29,10.4,2.0
724.99,2.12,8.55,2.28
725.05,1.69,8.12,0.82
725.1,1.41,8.12,1.49
725.15,2.59,7.81,2.79
725.21,1.37,7.14,3.45
725.26,0.78,6.43,3.84
725.31,0.55,7.65,4.67
725.37,1.18,8.24,4.71
725.42,1.73,8.83,4.75
725.48,2.2,10.67,5.65
725.53,1.45,9.73,6.47
725.58,6.98,11.92,1.37
725.64,4.16,5.96,2.86
725.69,2.2,7.88,0.24
725.75,3.88,9.89,0.27
725.8,2.16,7.18,1.18
725.85,0.16,8.39,1.29
725.91,0,8.63,2.24
725.96,0.04,9.45,2.24
726.02,0.71,9.06,1.92
726.07,0.08,8.83,2.12
726.12,0.2,8.87,2.0
726.18,0.27,9.57,0.67
726.23,1.26,10.59,2.47
726.28,-1.69,9.65,2.75
726.34,-0.08,13.18,-1.45
726.39,0.86,11.06,2.35
726.45,5.18,11.22,-0.55
726.5,1.49,10.98,1.96
726.55,3.06,8.2,-0.47
726.61,2.04,7.69,1.18
726.66,2.9,8.43,1.69
726.72,2.2,8.75,3.02
726.77,0.59,7.02,3.49
726.82,1.06,6.2,4.31
726.88,0.78,6.83,4.82
726.93,1.65,8.12,4.31
726.98,2.63,9.41,3.49
727.04,1.77,10.24,6.86
727.09,1.14,8.16,6.9
727.14,7.02,13.34,-0.12
727.2,4.31,8.47,3.8
727.25,2.71,7.88,0.43
727.31,3.53,9.61,0.63
727.36,1.65,7.06,1.26
727.41,0.9,8.12,1.69
727.47,0.31,8.28,2.63
727.52,0.55,9.1,1.88
727.58,1.96,8.87,1.69
727.63,0.43,8.32,2.31
727.68,1.26,8.9,1.77
727.74,0.16,10.43,1.02
727.79,0.16,10.79,2.16
727.84,-1.92,10.32,2.51
727.9,2.35,9.96,0.16
727.95,0.27,10.83,2.04
728.01,6.79,10.83,-0.78
728.06,1.53,10.87,2.86
728.11,0.98,9.57,2.16
728.17,1.92,7.65,0.55
728.22,2.98,8.04,1.45
728.28,2.86,8.04,2.63
728.33,1.14,7.53,3.14
728.38,0.51,6.51,3.92
728.44,0.86,7.1,4.55
728.49,1.1,8.55,5.06
728.54,1.84,9.34,4.47
728.6,0.86,10.51,7.57
728.65,2.55,9.02,4.94
728.7,9.02,16.24,0.82
728.76,2.12,4.28,-0.08
728.81,0.2,7.61,3.61
728.86,3.96,8.98,1.14
728.92,1.65,8.47,0.12
728.97,-1.18,7.77,2.47
729.03,-1.37,9.41,2.71
729.08,0.67,8.28,2.82
729.13,1.73,9.18,2.43
729.19,0.51,8.39,2.75
729.24,0.63,9.1,1.53
729.29,1.73,9.22,1.53
729.35,-0.31,10.43,2.08
729.4,-1.49,9.77,1.26
729.45,-0.75,14.04,1.84
729.51,5.69,11.49,0.31
729.56,3.65,8.16,2.0
729.61,0.86,10.55,2.59
729.67,2.24,8.75,0.0
729.72,1.88,8.75,0.94
729.77,2.55,8.55,2.31
729.83,1.65,8.28,3.06
729.88,0.67,6.63,3.53
729.93,1.02,6.86,4.35
729.99,0.71,7.57,4.86
730.04,1.77,9.26,5.45
730.09,2.82,11.26,4.51
730.15,0.2,8.59,10.67
730.2,6.47,9.92,0.04
730.26,8.83,10.47,-0.24
730.31,2.24,7.26,0.35
730.36,2.86,10.67,0.43
730.42,1.92,6.86,1.37
730.47,1.14,7.1,1.65
730.52,0.16,8.12,2.35
730.58,-1.33,9.45,2.75
730.63,0.75,9.1,1.88
730.68,1.1,8.63,2.04
730.74,0.67,7.81,3.1
730.79,0.31,9.3,1.45
730.84,-0.75,10.47,1.96
730.9,-0.04,10.24,1.18
730.95,1.26,10.32,4.86
731.01,3.18,11.73,0.51
731.06,3.96,9.69,1.37
731.11,1.06,10.43,3.69
731.17,1.65,9.3,0.86
731.22,1.57,7.41,1.06
731.28,2.82,8.16,2.24
731.33,1.8,8.75,2.75
731.38,0.12,6.83,3.77
731.44,0.71,6.79,4.28
731.49,1.22,7.53,4.71
731.54,1.33,8.24,4.43
731.6,1.49,8.79,4.59
731.65,1.45,9.96,5.3
731.71,1.92,10.24,6.08
731.76,6.04,16,-0.24
731.81,4.28,5.37,2.82
731.87,0.47,9.69,-0.04
731.92,2.12,9.22,3.3
731.98,3.33,6.35,0.59
732.03,0.35,8.9,1.29
732.08,0.31,8.2,2.04
732.14,0.27,9.41,1.88
732.19,0.67,9.49,2.24
732.24,0.16,8.9,2.2
732.3,0.75,8.79,2.24
732.35,0.94,9.06,2.2
732.41,-0.04,9.18,1.84
732.46,-0.16,9.3,3.1
732.51,-0.9,11.22,0.55
732.57,1.29,9.26,4.08
732.62,-0.12,13.22,0.35
732.68,7.61,12.47,-0.63
732.73,2.71,6.71,1.69
732.78,1.06,8.98,1.77
732.84,3.8,9.89,0.39
732.89,1.57,8.87,0.71
732.95,2.63,8.9,1.61
733,1.26,8.94,2.08
733.05,0.43,6.98,3.18
733.11,1.1,7.37,3.92
733.16,0.82,7.69,4.63
733.22,0.43,8,5.3
733.27,1.33,9.14,5.41
733.32,1.88,10.28,4.67
733.38,1.45,9.89,6.75
733.43,8.63,10.94,1.69
733.48,5.88,10.83,4.2
733.54,0.55,7.14,0.12
733.59,3.61,10.4,0.24
733.65,1.65,6.86,1.02
733.7,0.43,8.36,1.41
733.76,0.43,8.63,1.8
733.81,-0.04,9.1,2.47
733.86,0.27,9.06,1.92
733.92,1.1,8.75,2.08
733.97,0.16,8.94,2.04
734.02,0.12,9.1,1.26
734.08,1.1,10.04,2.08
734.13,-1.53,10.36,2.08
734.19,1.8,9.77,2.43
734.24,0.12,12.2,0.16
734.29,7.18,11.18,-0.16
734.35,2.67,10.55,2.71
734.4,0.24,10.24,2.55
734.45,1.53,7.26,0.12
734.51,2.16,8.75,1.22
734.56,3.14,8.94,2.43
734.62,1.8,8,3.06
734.67,0.86,6.86,3.77
734.72,0.9,6.83,4.12
734.78,1.65,7.34,4.31
734.83,2,8.08,3.77
734.89,1.77,8.83,4.9
734.94,0.86,9.49,6.43
734.99,3.84,10.87,3.77
735.05,3.37,10.55,3.77
735.1,6.12,14.2,0.71
735.16,0.35,3.53,2.79
735.21,0.82,10.12,1.41
735.26,3.41,7.3,2.2
735.32,2.94,7.77,1.45
735.37,1.84,8.87,1.22
735.42,0.47,8.9,1.92
735.48,0.63,8.55,2.04
735.53,1.65,9.49,1.41
735.59,0.86,8.51,2.0
735.64,0.2,9.06,2.12
735.69,0.75,8.83,1.77
735.75,0.59,9.49,1.53
735.8,0.39,10.16,1.88
735.86,-0.35,10,2.08
735.91,1.69,10.24,2.43
735.96,0.31,11.38,1.73
736.02,5.14,12.83,-0.16
736.07,3.45,8.36,1.02
736.12,1.14,9.38,2.28
736.18,2.08,9.81,1.26
736.23,0.86,7.65,1.41
736.29,1.84,8.59,1.88
736.34,2.35,8.12,2.71
736.4,0.82,6.86,3.33
736.45,0.78,7.34,3.69
736.5,0.71,8.04,4.2
736.56,1.37,8.08,4.67
736.61,1.49,9.65,3.57
736.66,0.78,11.02,5.92
736.72,2.2,10,5.96
736.77,6.71,15.38,-1.45
736.83,5.69,3.73,4.67
736.88,0.63,7.18,0.43
736.93,4.16,10.83,0.24
736.99,3.41,6.32,0.98
737.04,0.98,9.18,0.51
737.1,-0.24,8.36,2.2
737.15,0.35,9.45,2.08
737.21,1.53,9.1,1.29
737.26,0.63,9.1,1.96
737.31,1.22,8.59,1.88
737.37,0.9,8.55,0.98
737.42,0.31,9.57,1.49
737.47,0.2,9.41,2.79
737.53,-0.27,8.83,3.33
737.58,2.94,10.16,2.39
737.64,0.55,13.69,-0.2
737.69,3.3,10.2,1.37
737.74,0.71,10.2,2.39
737.8,3.02,8.28,0.47
737.85,1.73,8.16,1.1
737.91,2.59,8.55,1.88
737.96,1.53,8.59,2.59
738.01,1.22,6.83,2.9
738.07,1.29,6.67,3.49
738.12,0.94,7.69,4.59
738.18,1.49,8.55,5.33
738.23,1.45,9.53,4.28
738.28,1.06,11.1,7.49
738.34,5.96,11.26,2.16
738.39,5.37,7.73,4.0
738.45,2.12,8.79,0.35
738.5,2.94,9.92,1.14
738.55,2.04,8.71,0.24
738.61,0.9,8.12,0.63
738.66,0.24,8.32,2.0
738.72,-0.16,9.02,2.16
738.77,0.24,9.22,2.24
738.82,1.02,8.9,1.77
738.88,1.61,8.63,2.12
738.93,1.14,8.67,1.69
738.98,1.14,9.14,1.96
739.04,0.08,10.43,2.2
739.09,-1.53,9.81,1.92
739.15,1.33,10.63,1.02
739.2,1.29,10.43,1.45
739.26,5.41,11.41,-0.78
739.31,1.14,10.12,2.82
739.36,0.98,9.45,2.28
739.42,1.02,7.22,1.41
739.47,1.45,9.18,1.49
739.53,2.2,8.67,2.71
739.58,1.18,7.26,3.53
739.63,0.75,6.71,4.12
739.69,0.59,7.88,4.86
739.74,1.02,8.24,4.63
739.79,2.04,8.87,5.1
739.85,1.73,10.32,6.75
739.9,1.65,7.92,8.12
739.96,8.63,16.59,-3.41
740.01,3.02,4.39,2.39
740.07,3.65,6.98,-0.75
740.12,4.82,8.12,0.98
740.17,2.79,7.37,1.33
740.23,0.24,8.08,1.41
740.28,0.08,8.79,2.04
740.34,0.16,9.38,2.16
740.39,0.63,8.79,1.88
740.44,0.35,8.75,2.24
740.5,0.55,8.9,1.8
740.55,0.55,9.61,1.69
740.6,0.16,10,2.79
740.66,0.16,9.57,1.33
740.71,1.33,12.04,0.71
740.77,7.06,13.69,0.2
740.82,3.1,8.98,2.79
740.88,1.18,9.85,1.33
740.93,1.8,9.69,0.51
740.98,2.31,8.94,1.1
741.04,3.33,7.61,1.8
741.09,1.29,7.96,3.1
741.14,0.94,6.67,3.53
741.2,0.71,6.94,4.59
741.25,1.14,7.53,4.75
741.31,1.61,9.3,3.77
741.36,1.53,10.83,4.59
741.41,0.82,10,7.85
741.47,9.34,12.55,0.43
741.52,5.26,8.79,3.57
741.57,0.86,7.69,0.94
741.63,4.63,11.06,0.82
741.68,1.8,7.96,1.22
741.74,-0.39,8.2,1.69
741.79,0.59,7.96,1.96
741.84,1.45,8.63,1.92
741.9,0.86,9.02,1.88
741.95,0.35,9.57,1.37
742.01,0.51,8.79,2.04
742.06,0.67,8.9,1.8
742.11,0.39,9.41,2.08
742.17,-0.24,9.81,1.45
742.22,-0.51,10.32,1.96
742.28,-0.2,9.69,2.9
742.33,0.86,11.81,2.08
742.38,7.26,12.12,-0.67
742.44,2.28,8.47,2.04
742.49,-0.04,11.06,3.06
742.55,1.41,8.24,0.24
742.6,0.27,8.04,1.49
742.65,3.22,7.92,2.47
742.71,1.65,8.36,3.18
742.76,0.31,6.86,3.73
742.82,0.16,6.75,4.67
742.87,0.43,7.88,4.98
742.92,1.8,9.49,4.98
742.98,2.43,9.38,5.81
743.03,2.67,10.9,6.24
743.09,8.12,14.55,-0.82
743.14,4.12,6.94,2.47
743.19,1.1,9.49,-0.82
743.25,4.2,6.86,1.57
743.3,2.67,7.14,0.59
743.35,0.24,7.88,1.33
743.41,-0.47,8.63,2.71
743.46,0.04,9.53,1.29
743.52,0.39,9.18,1.84
743.57,0.94,8.79,1.8
743.63,1.69,8.98,1.65
743.68,0.43,8.87,1.69
743.73,-0.2,10.28,1.61
743.79,0.27,9.34,2.63
743.84,1.73,10.04,1.14
743.9,0.51,11.53,1.88
743.95,5.22,12.94,0.43
744,2.82,8.67,2.0
744.06,1.22,8.55,2.43
744.11,2.79,9.65,0.78
744.16,1.65,7.81,1.69
744.22,2.43,9.14,1.77
744.27,1.92,7.85,2.9
744.33,0.9,7.49,3.45
744.38,1.1,6.9,3.84
744.43,1.06,7.22,4.2
744.49,1.37,8.32,3.84
744.54,1.49,9.53,4.51
744.6,2.08,10.2,5.65
744.65,2.55,11.45,5.41
744.71,5.45,15.57,7.37
744.76,3.22,3.88,0.47
744.81,3.18,9.14,0.82
744.87,4,12.79,2.59
744.92,0.94,7.45,1.65
744.97,1.26,8.04,2.12
745.03,0.59,8.9,1.1
745.08,1.29,7.88,2.59
745.14,-0.08,8.83,2.28
745.19,1.06,9.41,1.73
745.24,0.51,8.79,2.12
745.3,0.12,8.75,2.2
745.35,1.06,10,1.8
745.41,-1.02,9.73,2.94
745.46,1.02,9.77,1.65
745.51,0,11.96,1.41
745.57,5.92,12.75,-0.82
745.62,3.02,9.34,2.08
745.68,0.55,9.34,2.43
745.73,1.8,9.26,0.98
745.78,1.53,8.51,1.26
745.84,3.1,8.51,2.39
745.89,1.53,7.61,2.79
745.95,0.71,7.88,3.73
746,0.98,7.14,4.28
746.05,0.94,7.34,4.79
746.11,1.18,8.32,4.35
746.16,2.08,10.08,3.96
746.22,0.2,9.38,7.34
746.27,5.92,10.43,2.55
746.32,7.41,17.14,2.12
746.38,2.31,3.96,1.02
746.43,1.29,7.53,0.94
746.48,3.77,8,0.35
746.54,1.92,8.08,0.82
746.59,-0.47,8.2,0.82
746.65,-0.2,9.26,2.24
746.7,0.82,9.22,1.84
746.76,1.45,8.67,1.8
746.81,0.24,9.1,2.16
746.86,0.9,9.18,1.77
746.92,1.18,9.06,1.61
746.97,1.29,9.73,2.04
747.03,-1.06,9.77,2.55
747.08,1.33,8.87,1.53
747.13,1.18,10.83,1.73
747.19,4.35,11.38,-1.06
747.24,2.35,11.02,2.12
747.29,1.61,8.59,0.86
747.35,1.65,7.92,0.82
747.4,2.24,8.55,1.61
747.46,2.82,8.2,2.67
747.51,0.94,7.81,3.02
747.56,0.59,7.45,3.65
747.62,0.67,7.18,4.28
747.67,0.63,7.61,4.67
747.73,0.78,8.79,4.2
747.78,1.84,9.96,5.1
747.83,-0.24,9.02,7.53
747.89,5.88,11.77,2.71
747.94,7.69,15.02,4.12
747.99,1.8,4.28,4.35
748.05,2.82,10.4,-0.24
748.1,4.2,5.96,1.29
748.16,2.39,7.06,0.35
748.21,0.08,10,0.59
748.26,0.16,8.36,2.47
748.32,0.82,8.98,2.43
748.37,0.94,8.79,2.28
748.42,0.39,8.98,1.73
748.48,0.27,8.83,1.73
748.53,0.04,10.2,1.53
748.59,0.43,10.04,2.79
748.64,-0.63,8.75,1.57
748.69,2.35,11.3,2.51
748.75,6.32,13.1,0.0
748.8,2.2,11.1,2.35
748.85,-0.2,8.9,2.75
748.91,2.55,7.92,-0.63
748.96,2.08,7.81,1.18
749.02,3.61,7.57,2.08
749.07,1.73,8.55,3.1
749.12,0.55,7.06,3.33
749.18,0.63,6.94,4.0
749.23,1.37,7.45,4.47
749.28,1.73,8.51,4.71
749.34,2.67,9.65,3.73
749.39,1.84,10.79,6.63
749.45,7.96,15.89,-0.59
749.5,6.28,6.47,4.94
749.55,0.47,9.06,0.9
749.61,3.96,9.3,1.06
749.66,3.49,6.12,0.98
749.71,0.43,8.28,1.1
749.77,0.35,8.51,1.84
749.82,0.63,8.71,2.28
749.88,0.9,9.14,2.28
749.93,0.78,8.71,2.12
749.98,1.14,8.87,1.77
750.04,0.43,8.83,2.24
750.09,0.43,9.49,2.31
750.14,0.47,8.9,3.02
750.2,0.47,10.59,1.06
750.25,0.55,10.98,2.24
750.3,4.43,12.08,0.2
750.36,2.82,7.65,1.73
750.41,1.22,9.92,2.9
750.47,2.16,10,1.65
750.52,1.88,8.43,1.37
750.58,2.51,8.43,2.16
750.63,2.35,7.73,2.63
750.68,0.63,7.06,3.49
750.74,0.78,7.61,4.08
750.79,0.67,7.49,4.67
750.84,1.18,7.77,4.86
750.9,2,9.41,5.61
750.95,2.08,9.85,6.86
751.01,3.96,10.59,5.1
751.06,3.65,16.16,3.06
751.11,3.65,4.71,3.06
751.17,3.45,9.92,-1.22
751.22,3.26,7.53,1.37
751.27,2.24,7.81,1.8
751.33,0.82,8.32,2.08
751.38,0.43,8.39,2.51
751.43,-0.16,9.02,2.47
751.49,1.45,8.83,2.31
751.54,1.1,8.98,2.31
751.6,-0.24,8.83,2.55
751.65,0.78,9.02,1.57
751.7,1.33,9.81,2.2
751.76,-1.69,10.59,2.35
751.81,0.9,9.73,2.16
751.86,-0.43,11.57,2.31
751.92,6.04,10.9,-0.59
751.97,2.9,7.3,2.59
752.03,1.06,11.18,3.1
752.08,2.39,9.69,0.27
752.14,1.8,7.69,1.77
752.19,3.61,8.12,2.2
752.24,1.18,7.85,2.51
752.3,0.86,6.28,3.84
752.35,0.55,7.96,4.24
752.4,0.94,8.08,4.43
752.46,1.57,9.02,4.35
752.51,1.8,9.02,4.75
752.57,0.08,9.22,6.43
752.62,4.67,9.73,5.1
752.67,6.28,16.28,1.92
752.73,2.39,5.06,3.3
752.78,3.41,7.92,0.04
752.84,2.9,7.85,3.06
752.89,0.98,7.37,0.86
752.94,0.59,8.43,2.2
753,0.94,7.69,2.43
753.05,1.26,9.65,2.16
753.1,0.16,8.87,2.35
753.16,-0.71,8.79,2.67
753.21,0.59,8.83,2.28
753.27,1.06,8.87,2.51
753.32,0.94,10.63,1.57
753.38,-1.53,9.49,2.75
753.43,1.69,11.53,2.94
753.48,4.98,11.96,0.67
753.54,3.65,8.71,1.96
753.59,1.65,9.02,1.92
753.65,3.3,8.79,0.24
753.7,2.35,8.36,1.45
753.75,2.86,9.22,1.45
753.81,2.08,8.32,2.67
753.86,1.22,8.43,3.69
753.91,1.1,7.41,4.08
753.97,0.94,7.22,4.63
754.02,1.02,7.06,4.75
754.08,1.69,8.71,4.59
754.13,2.28,9.96,4.63
754.18,4.67,11.65,3.73
754.24,5.22,15.06,4.51
754.29,2.39,3.3,1.37
754.35,2.79,9.73,0.04
754.4,2.98,8.28,0.94
754.46,2.31,7.02,1.29
754.51,0.75,8.36,1.49
754.56,0.63,8.16,1.57
754.62,-0.55,8.98,2.08
754.67,1.26,9.06,3.18
754.72,0.94,8.28,2.28
754.78,1.73,8.67,1.73
754.83,-0.08,9.06,1.77
754.89,0.75,9.53,1.88
754.94,0.31,10.12,2.31
754.99,1.33,9.85,1.84
755.05,-1.1,11.73,2.39
755.1,5.26,10.43,0.16
755.16,3.06,8.59,2.63
755.21,1.37,9.53,2.39
755.26,2.51,9.34,0.43
755.32,2.04,8.79,1.22
755.37,2.2,8.94,2.16
755.42,1.45,8.79,2.98
755.48,0.9,8,3.73
755.53,1.49,7.18,4.04
755.59,1.02,7.3,4.24
755.64,1.53,7.77,4.08
755.69,1.88,8.71,4.63
755.75,0.75,9.41,5.26
755.8,0.31,8.67,6.9
755.86,2.12,10.04,4.63
755.91,6.47,19.97,1.06
755.96,1.96,3.69,1.84
756.02,2.31,9.26,0.27
756.07,3.73,8.87,1.18
756.13,2.12,7.14,1.61
756.18,0.94,8.71,1.69
756.23,0.24,9.34,1.92
756.29,0.71,9.41,1.92
756.34,1.41,8.79,2.08
756.4,0.94,9.18,2.04
756.45,0.71,8.9,2.04
756.5,-0.55,9.34,2.16
756.56,0.59,9.69,1.92
756.61,0.47,10.08,1.45
756.66,0.16,9.18,0.78
756.72,2.39,10.71,2.2
756.77,1.77,12.71,0.63
756.83,4.35,8.98,1.14
756.88,1.22,9.45,2.9
756.93,2.55,9.1,1.37
756.99,1.84,7.45,1.29
757.04,1.84,9.34,1.73
757.1,2.16,8.51,3.22
757.15,0.94,7.81,3.26
757.2,0.94,8.12,3.22
757.26,0.9,7.49,4.16
757.31,1.22,7.65,4.43
757.37,1.02,8,4.67
757.42,1.1,8.2,4.39
757.47,1.22,9.06,5.3
757.53,2.2,11.34,3.88
757.58,5.92,13.73,0.12
757.64,5.33,6.79,3.61
757.69,2.9,6.98,1.02
757.74,1.8,9.96,0.98
757.8,2.59,6.63,0.35
757.85,1.73,7.69,1.73
757.91,0.86,8.43,2.08
757.96,0.59,8.51,1.77
758.01,0.75,9.38,2.2
758.07,0.71,8.94,1.92
758.12,0.86,8.94,1.88
758.17,1.26,8.94,1.61
758.23,0.16,9.1,1.69
758.28,1.22,9.73,2.12
758.34,-1.45,10.71,0.94
758.39,1.49,8.94,2.47
758.44,-0.08,11.53,1.18
758.5,6.28,11.45,-0.04
758.55,1.96,9.1,2.04
758.61,0.9,10.36,2.12
758.66,1.8,9.34,1.06
758.71,1.77,8.12,1.18
758.77,2.86,8.59,1.92
758.82,1.84,7.49,2.98
758.88,0.86,7.3,3.84
758.93,0.94,7.96,4.12
758.98,0.86,7.77,4.55
759.04,0.82,8.12,4.51
759.09,1.41,8.51,4.28
759.15,1.26,9.85,4.94
759.2,0.59,9.61,6.98
759.26,6.51,12.47,-0.94
759.31,5.18,9.41,4.12
759.36,2.43,5.96,2.0
759.42,2.67,10.2,0.0
759.47,4.08,6.47,1.61
759.53,1.45,8.83,1.26
759.58,1.02,8.9,1.96
759.63,0.43,8.79,1.92
759.69,1.69,9.18,1.73
759.74,0.94,9.65,1.61
759.79,0.75,8.94,1.88
759.85,0.94,8.9,1.65
759.9,0.67,8.79,1.65
759.96,0.55,9.34,1.92
760.01,-0.47,10.43,2.55
760.07,-0.39,10.63,1.22
760.12,3.18,9.1,3.37
760.17,-0.71,12.59,1.37
760.23,4.9,10.51,-0.59
760.28,1.92,8.79,1.84
760.34,1.37,9.96,1.29
760.39,2.16,8.43,0.12
760.44,1.57,8.83,0.71
760.5,2.04,8.75,2.08
760.55,0.55,7.81,2.94
760.6,1.41,6.47,4.16
760.66,0.67,7.53,4.12
760.71,1.06,7.85,4.39
760.77,1.41,8.08,3.77
760.82,1.1,9.34,4.39
760.87,1.29,10.08,6.51
760.93,4.31,11.96,2.75
760.98,7.06,15.85,1.26
761.04,3.53,3.18,2.43
761.09,2.75,9.57,-0.47
761.15,3.22,7.53,2.0
761.2,2.9,6.32,1.33
761.25,0.75,8.71,1.45
761.31,-0.08,8.32,2.43
761.36,0.55,7.69,2.9
761.41,2.55,9.73,1.45
761.47,-0.12,8.59,2.67
761.52,0.82,8.83,2.28
761.58,0.75,9.14,2.0
761.63,-0.78,9.81,1.84
761.68,0,9.3,2.9
761.74,-0.75,9.49,2.51
761.79,0.67,11.96,2.2
761.85,1.02,11.26,0.2
761.9,6.75,10.83,-0.12
761.95,3.06,8.16,2.59
762.01,-0.27,11.49,4.43
762.06,0.82,8.16,0.9
762.12,2.04,8.24,1.45
762.17,3.69,8.32,2.0
762.22,1.33,7.1,3.73
762.28,0.55,6.94,4.31
762.33,0.63,7.88,4.63
762.39,0.9,7.88,4.94
762.44,1.8,8.55,4.71
762.49,1.77,9.18,4.86
762.55,1.02,9.45,7.02
762.6,3.57,8.94,5.02
762.66,7.06,19.26,2.55
762.71,2.79,4.08,2.31
762.76,1.57,5.88,0.55
762.82,3.1,7.88,1.53
762.87,1.06,7.49,2.12
762.93,-0.16,8.59,2.24
762.98,0,9.45,2.67
763.03,1.29,8.98,1.92
763.09,0.94,8.9,2.08
763.14,0.43,8.83,2.04
763.2,0.86,8.71,1.88
763.25,1.45,9.69,1.14
763.3,0.24,9.53,2.2
763.36,-1.49,10.47,1.77
763.41,0.2,9.85,1.8
763.47,-0.63,12,2.39
763.52,6.12,12.2,-1.45
763.57,2.39,7.53,1.84
763.63,0.47,10.59,2.59
763.68,2.71,8.83,1.69
763.74,1.92,8.87,1.57
763.79,2.63,8.12,2.31
763.84,0.98,7.53,2.82
763.9,0.94,6.63,3.49
763.95,0.86,7.26,4.16
764.01,0.59,7.61,4.71
764.06,1.06,8.9,5.02
764.11,1.84,9.77,4.67
764.17,0.9,10.94,8.0
764.22,6.35,11.18,3.65
764.28,5.37,9.41,4.47
764.33,2.55,8.75,-0.82
764.38,4.51,9.53,-2.04
764.44,2.35,7.37,0.71
764.49,1.57,7.96,2.24
764.55,0.47,8.83,2.16
764.6,0.08,8.98,2.86
764.65,0.27,8.87,2.51
764.71,0.82,8.83,2.04
764.76,1.22,8.9,1.92
764.82,0.16,8.98,1.92
764.87,0.98,8.9,2.0
764.92,0.75,9.22,2.59
764.98,-0.47,9.96,2.82
765.03,1.18,10.36,1.45
765.08,0.08,12.55,1.41
765.14,5.57,10.43,0.51
765.19,3.53,8.59,1.33
765.25,0.78,9.18,2.39
765.3,2.35,9.53,0.27
765.35,1.73,8.55,1.37
765.41,3.1,9.14,2.04
765.46,1.96,7.73,3.45
765.52,1.41,6.51,3.45
765.57,1.57,7.61,3.41
765.62,1.57,8.04,4.04
765.68,1.84,8.59,4.79
765.73,0.63,9.45,4.04
765.79,0.2,9.06,7.1
765.84,-0.55,7.92,7.57
765.9,9.22,13.34,0.24
765.95,7.69,10.55,3.65
766,-0.82,4.47,0.16
766.06,2.82,11.38,0.82
766.11,4.43,6.2,1.06
766.16,1.29,9.18,0.59
766.22,-0.43,8.67,2.35
766.27,-0.39,9.45,2.16
766.33,0.82,8.9,1.88
766.38,1.22,9.14,1.92
766.43,1.06,8.94,2.04
766.49,1.14,8.75,1.88
766.54,0.94,9.3,1.65
766.6,-0.08,9.96,2.12
766.65,-1.06,10.79,2.28
766.71,1.26,9.49,3.37
766.76,-0.12,10.51,1.29
766.81,6.12,11.38,-0.51
766.87,2.47,7.61,1.57
766.92,1.26,10.43,1.57
766.97,1.18,9.77,1.77
767.03,1.33,8.43,1.92
767.08,2.98,8.36,1.88
767.14,2.59,8.08,2.16
767.19,1.33,6.59,3.22
767.24,1.29,7.49,3.3
767.3,0.86,8.32,4.16
767.35,0.86,8.43,4.59
767.41,0.71,8.71,4.67
767.46,0.86,9.49,5.61
767.52,1.53,10.75,6.04
767.57,6.47,12.43,0.63
767.62,5.02,4.75,4.71
767.68,1.22,8.43,0.86
767.73,3.26,10.28,0.08
767.78,3.57,6.79,1.73
767.84,1.57,8.43,1.57
767.89,0.2,8.59,2.04
767.95,-0.08,8.47,2.79
768,1.33,10.63,1.26
768.06,-0.04,8.98,2.51
768.11,-0.35,8.55,2.82
768.16,1.02,8.87,2.12
768.22,0.51,9.22,1.69
768.27,0.59,9.81,2.08
768.33,-0.9,10.43,2.59
768.38,1.1,9.49,1.33
768.43,0.75,11.1,1.57
768.49,5.22,10.75,0.98
768.54,4.04,9.1,1.1
768.6,0.82,10.71,3.02
768.65,1.53,9.06,1.14
768.71,1.22,7.96,1.53
768.76,3.06,8.04,1.49
768.81,2.63,8.12,2.59
768.87,0.9,6.51,3.8
768.92,0.78,6.47,4.24
768.97,0.55,8.04,5.14
769.03,1.57,9.06,4.55
769.08,2.39,9.26,4.08
769.14,1.29,9.06,7.57
769.19,6.47,11.38,3.61
769.24,5.65,11.85,6.86
769.3,1.22,7.96,1.33
769.35,1.88,11.26,0.39
769.41,4.31,4.71,2.28
769.46,2.63,8.43,1.06
769.52,0.39,8.36,1.92
769.57,0.47,8.36,1.84
769.62,0.71,8.83,2.12
769.68,0.24,8.51,2.9
769.73,1.57,8.9,1.73
769.78,0.9,9.02,1.92
769.84,0.12,9.18,2.0
769.89,-0.12,10.4,1.77
769.95,-0.86,9.57,2.47
770,0.2,10.75,0.86
770.05,0.71,12.71,2.24
770.11,5.57,11.14,-0.35
770.16,3.8,9.26,1.14
770.22,0.31,9.73,3.06
770.27,1.96,9.77,0.39
770.32,1.41,7.73,1.92
770.38,3.26,8.04,1.92
770.43,1.61,7.85,3.22
770.49,1.06,6.71,3.61
770.54,1.26,7.77,3.73
770.59,1.45,8.36,4.39
770.65,1.33,8.43,4.43
770.7,1.06,9.45,4.47
770.76,0.75,10.36,5.57
770.81,0.75,10.04,5.57
770.86,5.65,14.04,-0.59
770.92,5.65,6.24,2.47
770.97,2.71,7.14,0.47
771.03,3.41,10,1.8
771.08,2.75,6.24,1.65
771.13,1.33,9.41,1.49
771.19,0.27,7.49,2.67
771.24,0.67,9.14,2.2
771.3,0.39,9.57,1.8
771.35,0.67,8.63,1.96
771.4,1.41,9.02,1.69
771.46,1.18,8.59,1.8
771.51,0.78,9.69,2.16
771.57,-0.2,10.36,2.08
771.62,0.2,9.89,3.26
771.67,1.65,9.92,2.16
771.73,0.31,11.89,0.98
771.78,5.37,10.55,-0.63
771.84,1.29,10.16,1.96
771.89,0.71,10.12,2.35
771.94,1.57,8.75,0.16
772,1.73,7.45,2.59
772.05,2.79,7.92,2.35
772.1,2.08,6.43,2.94
772.16,1.1,6.08,4.43
772.21,0.39,7.96,4.39
772.27,0.39,8.83,5.02
772.32,1.18,9.14,4.55
772.37,0.9,10.12,5.53
772.43,3.06,11.41,4.28
772.48,6,17.02,1.18
772.54,3.3,6.16,0.12
772.59,3.18,8.39,0.71
772.64,3.18,8.63,1.18
772.7,1.69,6.94,0.59
772.75,0.82,7.73,2.12
772.81,0.2,8.36,3.06
772.86,0.16,9.57,1.84
772.91,1.65,8.87,2.24
772.97,0.86,8.63,2.39
773.02,0.04,8.94,2.35
773.08,0.39,8.87,1.69
773.13,0.39,9.85,2.63
773.18,-1.69,10.04,2.2
773.24,1.41,10.04,-0.16
773.29,0.47,12.43,0.0
773.34,5.96,11.18,-0.2
773.4,2.2,7.61,2.71
773.45,0.75,10.28,3.33
773.51,1.96,8.24,1.14
773.56,1.45,8.28,2.28
773.61,2.82,8.36,2.16
773.67,1.49,7.88,2.86
773.72,0.67,6.43,3.65
773.78,1.18,7.41,3.8
773.83,1.02,8,4.43
773.88,0.94,8.9,4.63
773.94,1.41,8.98,4.67
773.99,0.9,10.94,6.55
774.04,4.12,11.81,5.45
774.1,5.45,15.14,4.16
774.15,4.51,4.75,0.63
774.2,2.2,10.04,-0.71
774.26,3.49,8.51,0.98
774.31,2.2,7.37,1.69
774.37,1.26,8.24,2.35
774.42,0.2,8.47,2.59
774.47,0.47,9.26,2.12
774.53,2.04,9.26,2.2
774.58,0.63,8.59,2.47
774.64,0.39,8.67,2.2
774.69,0.47,9.1,1.49
774.74,1.18,9.61,2.2
774.79,-1.37,10.36,1.69
774.85,0.24,8.75,2.28
774.9,1.18,11.89,1.33
774.96,4.47,13.1,-0.51
775.01,3.69,7.96,1.37
775.06,0.63,10.98,2.94
775.11,2.59,9.06,0.59
775.17,1.69,7.61,2.04
775.22,2.82,8.16,1.84
775.28,1.92,8.04,2.82
775.33,0.59,6.75,3.57
775.39,0.86,6.79,4.08
775.44,0.47,7.88,4.71
775.49,1.18,8.67,4.82
775.55,2.43,9.65,4.39
775.6,0.27,10.79,6.79
775.66,1.96,7.92,5.53
775.71,8.39,18.48,0.55
775.76,2.55,3.77,0.9
775.82,1.18,7.88,-0.16
775.87,3.57,9.77,0.82
775.92,2.04,6.86,1.45
775.98,0.59,7.41,2.51
776.03,0.2,8.71,2.39
776.08,0.9,9.41,1.77
776.14,1.41,8.71,1.96
776.19,0.59,8.98,2.0
776.24,0.71,8.67,2.35
776.3,0.16,9.18,1.65
776.35,0.82,10.16,2.28
776.41,-0.51,10.2,2.94
776.46,0.12,10.04,0.31
776.51,0.71,11.61,0.0
776.57,6.32,10.79,0.31
776.62,2.35,10.32,1.8
776.67,0.08,10.04,3.18
776.73,2.16,8.75,0.75
776.78,1.69,8.08,1.26
776.84,3.22,7.85,2.0
776.89,1.96,7.61,3.14
776.94,0.86,6.08,3.88
777,0.78,7.26,4.67
777.05,0.35,8.79,4.82
777.1,1.45,8.67,5.02
777.16,2.04,10.36,4.86
777.21,5.14,12.59,3.73
777.27,6.51,16.59,-0.35
777.32,4.31,4.82,1.41
777.37,1.33,9.77,0.08
777.43,2.98,11.57,-1.88
777.48,1.49,7.57,0.98
777.54,0.04,8.28,2.63
777.59,0.35,7.77,2.67
777.65,0.27,8.67,2.71
777.7,1.65,8.67,2.16
777.75,0.94,8.98,2.47
777.8,-0.94,8.94,2.9
777.86,0.08,8.9,1.37
777.91,0.31,10.59,1.77
777.97,-1.45,9.14,2.51
778.02,2.39,10.63,1.73
778.07,2.04,14.55,1.77
778.13,4.24,8.08,1.37
778.18,1.22,10.47,3.1
778.23,1.61,9.06,0.86
778.29,1.57,8,1.69
778.34,2.51,8.04,1.84
778.4,2.71,7.88,2.39
778.45,0.86,7.37,3.26
778.5,0.78,6.55,4.24
778.56,0.47,7.41,4.71
778.61,1.02,8.32,5.18
778.66,1.69,9.14,3.96
778.72,1.06,9.92,7.45
778.77,3.65,11.1,4.63
778.83,5.69,15.61,4.28
778.88,3.02,6.08,1.49
778.93,2.59,9.53,0.43
778.99,3.45,7.92,1.92
779.04,1.96,7.26,1.57
779.09,0.24,8.08,1.96
