NAME:,walk_1_1.csv,,
EXPERIMENT TIME:,25-05-22 18:06,,
ACTIVITY TYPE:,Walking,,
COUNT OF ACTUAL STEPS:,111,,
,,,
Time [sec],ACC X,ACC Y,ACC Z
0.041,-2.39,-1.8,10.12
0.048,-2.51,-1.73,10.08
0.077,-2.55,-1.77,9.92
0.111,-2.43,-2.08,9.89
0.181,-2.67,-2.12,10.04
0.249,-2.86,-2.2,9.73
0.258,-2.47,-2.59,9.3
0.276,-2.31,-2.47,9.53
0.279,-1.77,-2.28,10.36
0.292,-2.16,-2.31,10.43
0.317,-2.2,-2.31,9.77
0.364,-2.2,-2.35,9.61
0.38,-2,-2.28,10.12
0.415,-2.04,-2.24,9.89
0.451,-2.04,-1.84,9.73
0.484,-2.43,-1.02,10.04
0.518,-2.04,-0.51,10.16
0.551,-1.41,-0.51,10.9
0.584,-1.22,-1.1,10.9
0.62,-1.8,-0.2,9.69
0.654,-2.79,1.02,9.92
0.672,-2.59,0.12,9.49
0.716,-0.55,0,8.71
0.738,-2.75,0.31,9.57
0.764,-2.51,-0.24,10.12
0.799,-2.04,-0.16,9.96
0.834,-3.06,0.39,9.57
0.866,-2.2,-0.08,9.41
0.899,-2.35,-0.67,9.73
0.934,-3.22,-0.08,9.96
0.97,-3.33,0.2,10.67
1.038,-3.1,-0.08,12.32
1.108,-3.14,-0.04,13.53
1.171,-3.02,0.55,13.61
1.204,-3.84,0.82,12.75
1.218,-7.1,1.29,11.41
1.22,-6.9,-1.29,9.41
1.232,-4.43,-2.43,7.77
1.254,-3.3,-2.35,11.77
1.291,-3.3,-1.14,10.08
1.325,-2.75,-1.29,9.81
1.359,-1.73,-2.47,8.63
1.393,-1.45,-2.55,7.49
1.462,-1.8,-2.71,8.51
1.528,-1.29,-3.26,9.26
1.554,-0.51,-3.26,8.75
1.566,-0.16,-2.43,7.61
1.586,1.33,-1.84,8.83
1.62,2.24,-1.18,9.89
1.654,2.86,-0.51,12.36
1.668,0.59,-3.18,13.45
1.696,3.65,-4.51,11.89
1.73,2.12,-4.12,14.12
1.766,-0.82,-3.49,12.4
1.8,-3.22,-7.3,10.47
1.835,-0.47,-0.82,9.26
1.87,-2.51,1.06,8.63
1.903,-1.88,-2.67,10.28
1.937,-2.9,-5.02,10.79
1.971,-2.75,-3.26,9.53
1.986,-3.06,-1.61,7.88
2.014,-3.8,0.47,7.53
2.049,-4.86,0,9.22
2.082,-3.26,-0.75,9.26
2.116,-0.82,-0.39,8.55
2.151,-1.65,0.63,7.88
2.183,-3.02,0.35,8.32
2.215,-3.14,-1.84,8.47
2.251,-2.82,-4.55,13.61
2.284,-4.16,2.47,12.47
2.319,-1.96,2.28,14.87
2.354,-3.69,-2.63,15.22
2.388,-9.02,3.06,12.12
2.402,-7.34,-1.29,7.26
2.428,-2,-6.86,8.59
2.462,-2.12,-4.04,12.87
2.494,-3.14,-1.22,12.12
2.529,-3.45,-0.31,6.71
2.563,0.78,-2.82,5.77
2.596,-0.59,-1.65,6.86
2.63,0.08,-2.75,6.86
2.663,0.82,-3.3,7.49
2.741,1.33,-2.82,7.57
2.812,2.79,-1.84,8.87
2.873,0.94,-0.39,13.3
2.899,-4.31,-3.1,15.06
2.947,6.24,-4,13.49
3.014,1.92,-4.43,13.69
3.076,-5.22,-7.41,14.63
3.079,-2.79,-7.3,10.55
3.098,-0.94,1.33,8
3.1,-2.67,-0.31,10.71
3.103,-3.1,-5.14,9.53
3.105,-1.14,-3.84,9.34
3.115,-2.98,-0.86,6.43
3.156,-1.02,-0.2,5.33
3.179,-3.61,0.55,7.18
3.196,-2.71,-0.51,7.53
3.229,-2.51,-1.29,7.06
3.263,-3.1,0.2,9.02
3.296,-2.86,0.47,10.9
3.34,-5.53,-2.24,14.67
3.376,-1.22,-3.57,13.1
3.409,-4.08,3.69,11.89
3.444,-4.43,-2.43,16.16
3.464,-7.3,-0.67,11.02
3.484,-7.37,3.77,7.73
3.518,-6.63,-5.14,13.34
3.551,-1.26,-8.04,15.02
3.588,-2.94,-2.94,12.59
3.62,-2.94,0.71,7.06
3.652,-2.35,-0.27,4.82
3.686,-0.08,-2.59,3.8
3.724,0.04,-2.94,5.57
3.757,0.2,-2.51,5.45
3.787,1.61,-1.92,7.1
3.822,2.79,-3.37,8.04
3.852,1.92,-2.31,11.3
3.892,1.1,-0.94,17.73
3.923,-1.29,-4.28,14.28
4.259,6,-3.77,13.06
4.746,0.43,-1.88,10.04
4.762,-9.85,-11.06,13.96
4.785,-0.9,0.98,8.12
4.797,0.47,-2.82,5.06
4.83,0.39,-2.71,4.98
4.863,0.39,-0.86,5.53
4.898,3.49,-3.61,7.81
4.934,3.53,-3.14,11.34
4.965,-0.35,-2.04,18.01
4.998,-0.39,-3.69,15.06
5.032,5.37,-4.94,14.04
5.067,0.75,0.04,13.53
5.107,-2.2,-8.24,11.45
5.133,-1.65,-1.33,8.16
5.166,-2.12,-0.31,8.2
5.194,-0.75,-4,10.83
5.209,-3.14,-4.39,10.94
5.284,-1.45,-2.43,7.37
5.351,-2.67,-0.71,5.81
5.379,-3.41,-0.67,6.75
5.399,-1.88,-0.63,6.86
5.424,-3.02,-0.51,5.69
5.427,-0.98,-0.82,5.53
5.448,-2.63,0.39,9.1
5.477,-3.8,0.86,12.36
5.515,-5.22,-1.22,15.77
5.548,-2.35,0,11.61
5.592,-3.02,2.59,14.2
5.607,-5.06,-5.14,13.22
5.629,-10.28,3.88,7.77
5.663,-4.86,-0.08,11.14
5.698,-5.45,-6.04,13.65
5.732,-2.51,-5.81,14.36
5.766,-4.08,-0.82,12.36
5.798,-3.92,1.1,6.43
5.832,1.29,-2.79,4.71
5.865,-2.35,-1.84,5.1
5.907,0.63,-2.24,4.9
5.926,0.59,-2.47,5.26
5.941,0.86,-1.8,5.49
5.976,3.73,-2.67,7.45
6.01,3.65,-3.02,11.69
6.043,-1.22,-2.67,18.12
6.077,8.16,-5.41,12.28
6.114,3.69,-4.43,13.34
6.147,-0.47,-0.27,13.61
6.182,-5.77,-9.85,13.93
6.217,-1.41,-2.59,8.08
6.252,-1.65,0.39,8.71
6.284,-3.1,-1.8,11.89
6.318,-2.59,-4.55,10.9
6.339,-2.39,-2.47,7.57
6.362,-2.63,-0.94,6.24
6.394,-4,-0.2,7.26
6.43,-1.29,-0.08,7.02
6.463,-1.73,-0.27,6.47
6.497,0.43,-1.61,5.84
6.57,-2.43,1.1,8.24
6.588,-4.67,-0.12,12.16
6.639,-2.94,-2.39,14.12
6.707,-4.04,-0.08,12.36
6.776,-2.43,2.9,12.36
6.841,-4.43,-5.02,15.06
6.909,-9.89,1.92,10.87
6.944,-8.12,1.61,8.28
6.957,-2.55,-2.2,6.67
6.986,0.51,-2.24,4.12
7.018,0.39,-2.79,5.1
7.049,1.22,-1.02,6.16
7.083,3.14,-3.41,8.12
7.115,2.39,-2.82,10.71
7.142,-0.16,-2.55,16.71
7.171,-0.08,-2.82,15.89
7.204,6.28,-4,13.38
7.238,3.53,-0.08,12.67
7.274,-6.51,-7.14,10.51
7.308,-5.18,-5.77,12.36
7.341,-1.53,0.08,9.38
7.373,-3.02,-0.43,9.06
7.386,-2.94,-3.14,10.12
7.415,-2.79,-3.53,10.59
7.45,-2.98,-0.71,6.9
7.486,-2.94,0,6.16
7.519,-3.3,-0.31,7.77
7.551,-2.04,-0.75,8.04
7.585,-1.18,-0.71,6.2
7.621,-3.26,0.27,7.1
7.654,-2.39,-0.35,9.53
7.687,-4.04,-1.29,14.12
7.721,-1.18,-2.9,12.08
7.756,-3.37,2.86,12.16
7.788,-3.61,-5.33,14.36
7.859,-10.63,1.45,11.73
7.929,-8.67,1.45,7.73
7.959,-5.02,-5.73,15.49
7.992,0,-0.63,4.86
8.024,-1.96,-2.67,6.39
8.058,-0.59,-2.79,5.73
8.093,0.12,-2.75,5.96
8.126,0.75,-2.55,6.59
8.169,1.26,-1.88,6.12
8.185,2.63,-2.59,8.04
8.216,2.28,-1.84,11.77
8.25,-1.57,-1.96,16.87
8.285,7.34,-4.16,12.47
8.32,2.79,-3.61,13.61
8.352,-2.04,-2.35,12.83
8.389,-6.16,-10.98,14.51
8.46,-1.61,-0.94,7.49
8.527,-0.82,1.26,7.22
8.597,-2.63,-2.51,11.02
8.657,-2.35,-2.47,7.81
8.687,-1.49,-1.26,7.26
8.701,-1.69,-0.71,5.77
8.728,-3.61,-0.08,9.1
8.762,-4.94,-0.67,12.79
8.797,-3.22,-1.8,13.93
8.829,-3.41,-0.75,12.2
8.863,-2.67,2.67,12.55
8.896,-3.92,-4.16,14.71
8.931,-8.71,0.24,10.4
8.964,-10.55,2.86,8.59
8.997,-3.8,-6.75,12.51
9.034,-4.28,-5.69,15.22
9.068,-5.49,-1.26,13.93
9.14,-4.35,-0.04,6.86
9.208,-1.49,-1.37,5.33
9.24,-1.53,-2.35,5.69
9.242,0.08,-2.28,5.06
9.258,0.86,-2.9,5.61
9.272,1.61,-2.24,6.67
9.307,2.79,-2.94,10
9.34,2.04,-2.39,14.32
9.372,-1.61,-0.82,17.5
9.407,6.59,-4.39,11.81
9.442,4.63,-3.18,12.63
9.475,-3.57,-2.59,9.77
9.519,-6.2,-12.67,12.43
9.55,-2.71,-1.53,12.4
9.563,0.2,-0.2,5.92
9.596,-1.29,-2.43,8.98
9.637,-4.86,-3.49,11.34
9.669,-3.49,-1.65,9.45
9.708,-1.92,-0.86,3.73
9.739,-3.37,-1.69,7.88
9.78,-1.73,-1.06,8.12
9.793,-2.2,-0.12,7.73
10.11,-0.78,0.27,5.77
10.597,-2.35,0.67,8.47
10.665,-2.59,-1.41,11.69
10.744,-4.16,-2.16,14.32
10.748,-3.92,-6.08,14.87
10.764,-4.12,0,6.55
10.769,-4.75,9,6.85
10.79,-2.94,-1.69,6.04
10.811,-2.71,-0.94,7.88
10.861,-3.06,-0.24,7.22
10.897,-2.43,-0.63,5.77
10.929,-2.31,-1.14,6.94
10.964,-1.69,-0.12,8.28
10.993,-3.37,-0.35,11.41
11.005,-3.84,-1.96,13.53
11.039,-2.51,-0.08,11.18
11.071,-3.14,0.43,11.92
11.12,-5.81,-4.86,12.91
11.146,-9.85,2.59,9.57
11.183,-4.98,-2.31,11.1
11.216,-4.2,-5.92,12.2
11.25,1.22,-4.67,15.22
11.282,-4.82,0.08,11.1
11.314,-2.16,-1.18,6.47
11.328,-2,-2.39,6.24
11.36,-0.08,-2.51,4.51
11.394,0.78,-2.63,5.18
11.427,0.39,-3.57,6.35
11.459,0.2,-1.96,5.49
11.495,2.51,-2.24,7.1
11.528,3.3,-2.28,11.1
11.56,-0.43,-2,16.99
11.593,6.59,-5.3,14.51
11.63,3.96,-4.55,13.81
11.7,0.51,0.16,14.32
11.726,-6.12,-8.9,13.53
11.767,-3.53,-3.57,7.34
11.794,-2.94,-0.04,8.08
11.825,-1.1,-2.63,10.4
11.829,-2.86,-4.08,10.63
11.846,-1.1,-2.55,7.88
11.879,-2.39,-0.67,6.43
11.914,-3.45,0.08,6.59
11.947,-3.88,-0.12,8.16
11.983,-2.35,-0.67,8.16
12.017,-1.73,-1.33,7.06
12.049,-3.3,0.94,9.34
12.082,-3.61,-0.35,11.81
12.108,-3.26,-1.45,13.18
12.124,-2.04,-1.96,11.92
12.198,-3.41,3.65,11.18
12.224,-4.9,-4.08,14.91
12.271,-8.71,0.16,11.96
12.34,-7.1,-0.24,7.61
12.381,-4.16,-6.94,12.2
12.406,-4.43,-0.16,7.73
12.421,-0.39,-2.47,5.92
12.466,0.24,-2.82,5.02
12.495,-1.26,-2.43,5.92
12.516,-0.24,-2.67,6.24
12.55,0.35,-2.39,5.61
12.582,1.26,-2.47,5.77
12.615,2.31,-2.35,9.41
12.647,1.41,-1.41,14.55
12.68,-2.63,-2.28,17.38
12.716,5.96,-5.14,15.02
12.748,3.41,-2.43,13.18
12.782,-8.79,-10,14.44
12.816,-3.02,-6.79,9.3
12.836,-1.84,-0.47,8.08
12.858,-4.24,-1.02,9.02
12.891,-2.51,-4.2,10.51
12.966,-3.53,-3.53,10.4
13.033,-2.79,-1.26,6.59
13.056,-3.06,-0.55,6.63
13.084,-3.88,-0.31,8.04
13.116,-1.57,0.9,7.92
13.148,-2.63,0.94,9.89
13.181,-4.67,-1.61,13.1
13.214,-0.47,-3.69,12.24
13.248,-2.51,2.59,12.63
13.282,-5.02,-5.22,14.98
13.315,-10.75,3.02,10.4
13.351,-5.84,0.12,9.73
13.383,-5.88,-6.75,12
13.416,0.12,-6.71,14.98
13.438,-4.43,-0.55,13.14
13.48,-5.06,0.12,7.26
13.512,1.57,-2,4.43
13.544,-0.82,-2.31,4.79
13.579,-0.86,-2.47,6.39
13.615,0.39,-2.47,5.77
13.647,0.16,-1.88,6.39
13.679,1.73,-2.08,6.51
13.712,2.08,-2.24,9.81
13.749,0.08,-1.22,17.14
13.767,3.41,-4.86,15.42
13.81,4.2,-4.35,12.91
13.837,0.08,-4.24,16.16
13.871,-6.08,-10.4,11.77
13.89,-2.67,-4.51,5.02
13.924,-3.14,-0.67,10.2
13.957,0.59,-3.1,11.38
13.991,-2.86,-3.69,10.47
14.059,-2.55,-1.61,8.39
14.128,-3.37,-0.78,6.55
14.196,-3.45,-0.59,8
14.264,-0.86,-0.35,7.41
14.336,-0.71,-0.78,5.88
14.381,-1.84,0,6.39
14.401,-4.35,-1.18,13.85
14.403,-3.88,3.8,12.71
14.405,-8.2,0.16,13.61
14.43,-3.65,-2.94,7.57
14.464,-4.98,-5.96,10.83
14.501,-0.16,-4.67,14
14.536,-6.39,0.04,13.1
14.567,-4.47,-0.08,7.22
14.603,-0.35,-2.47,6.32
14.638,-0.35,-3.53,5.96
14.67,-0.82,-2.55,5.77
14.707,0.27,-3.02,6.12
14.732,0.94,-2.24,5.45
14.76,1.22,-2.28,6.51
14.793,2.47,-2.43,10.32
14.828,0.71,-2.39,14.91
14.863,-3.33,-1.73,17.1
14.896,5.65,-4.39,13.69
14.929,-0.51,-4.28,15.85
14.963,-5.77,-8.67,11.65
14.983,-1.33,-5.45,5.65
15.004,-1.61,-0.27,9.53
15.038,-1.1,-1.45,11.18
15.084,-2.39,-4.04,9.45
15.117,-1.37,-2.82,8.28
15.134,-2.9,-1.41,7.14
15.171,-3.22,-0.2,7.14
15.203,-2.9,-0.27,7.49
15.237,-1.61,-0.75,6.28
15.273,-2.9,-0.63,8.55
15.306,-2.79,0.47,8.2
15.34,-4,0.98,11.49
15.373,-3.26,-0.55,12.36
15.407,-3.02,-2.35,12.24
15.441,-2.55,2.79,10.83
15.514,-2.51,-3.96,13.42
15.55,-6.35,-1.02,11.96
15.58,-8.71,2.47,7.06
15.637,-4.9,-4.35,11.49
15.666,-2.51,-7.88,13.22
16.469,-4.16,-5.22,16.4
16.935,2.94,-3.1,14.63
17.421,2.12,-4.63,13.89
17.446,-3.18,-4.39,15.69
17.918,0.14,-4,15.08
18.396,2,-3.69,8.16
18.884,2.43,-2.47,9.53
18.908,3.92,-2.47,9.73
18.916,10.12,2.31,4.63
18.917,-0.75,-3.06,12.47
18.936,-4.9,-0.12,10.4
18.943,1.49,-2.94,11.41
18.959,-5.49,-3.96,15.53
18.988,-1.61,5.69,10.51
19.018,-8.39,-2.35,13.42
19.041,-8.83,1.53,10.63
19.074,-11.57,-4.12,14.71
19.108,-4.39,-7.77,13.1
19.143,-4.55,-5.41,15.53
19.177,-1.61,-1.06,8.94
19.21,-5.69,1.37,6.47
19.247,-1.69,-2.39,4.47
19.28,1.41,-2.82,3.84
19.313,0,-2.12,4.63
19.38,1.1,-2.47,5.33
19.404,0.55,-2.82,5.69
19.454,1.84,-2.75,5.73
19.489,1.26,-2.39,12.55
19.491,-0.78,-2.43,16.83
19.517,4.08,-3.33,14.24
19.555,-0.24,-2.04,14.16
19.629,-4.59,-11.73,13.3
19.696,-1.41,-3.73,7.77
19.766,-3.53,0.43,8.71
19.811,0.08,-4.75,8.63
19.834,-1.53,0.27,6.24
19.848,-4.47,0.55,8.63
19.88,-1.84,-1.02,6.9
19.914,-1.77,-1.14,7.45
19.934,-2.9,-0.08,9.41
19.96,-3.92,-0.43,11.92
19.998,-2.82,-2.79,12.98
20.029,-0.9,-1.1,11.89
20.066,-2.39,3.77,11.81
20.104,-3.26,-2.75,14.24
20.133,-8.79,-0.59,12.04
20.168,-8.08,0.2,9.57
20.2,-1.92,-7.34,12.36
20.234,-4.94,-7.06,15.77
20.274,-6.83,-0.43,13.61
20.301,-3.92,1.53,6.51
20.334,-1.1,-2.39,5.33
20.367,-0.9,-2.35,5.22
20.397,-0.55,-2.59,5.1
20.417,0.16,-2.79,6.47
20.449,0.47,-2.35,6.75
20.484,2.31,-2.28,6.59
20.518,2.71,-2,10.4
20.557,-1.49,-1.57,16.95
20.587,-3.61,-3.77,17.65
20.662,6.83,-4.55,13.93
20.73,-0.78,-0.39,10.47
20.768,-6.75,-10.51,13.69
20.77,-6.2,-5.1,10.63
20.796,-2.55,-1.77,9.69
20.813,-3.14,-3.61,9.73
20.843,-1.8,-2.98,9.81
20.879,-2.24,-0.31,6.16
20.896,-3.37,-0.75,7.81
20.929,-2.98,-0.27,7.06
20.956,-2.24,-0.2,8.43
20.994,-0.43,-0.51,7.69
21.027,-2.43,0.35,8.2
21.06,-3.96,-0.39,11.73
21.097,-3.49,-1.73,13.26
21.134,-2.55,0.47,11.1
21.168,-3.1,2.39,13.22
21.199,-3.22,-5.26,14.71
21.233,-10.79,1.29,9.69
21.262,-6.59,-0.27,9.89
21.276,-2.43,-6.67,12.32
21.308,-4.12,-6.12,15.02
21.342,-5.77,-0.78,13.61
21.376,-3.45,0.04,4.94
21.411,-0.78,-2.86,6.59
21.487,-0.98,-1.84,4.86
21.515,0,-2.28,4.47
21.56,0.59,-3.41,6.47
21.626,0.12,-2.12,6
21.684,1.88,-1.65,6.83
21.718,2.31,-1.96,12.79
21.719,-0.35,-2.55,17.89
21.721,3.8,-4.86,14.4
21.739,2.55,-0.51,12.36
21.773,-5.3,-9.81,11.38
21.792,-6.28,-6.9,10.87
21.816,-1.49,-1.77,8.87
21.847,-2.67,-1.77,8.67
21.922,-3.33,-3.96,10.04
21.991,-2.39,-2.31,9.18
22.046,-2.9,-0.59,6.35
22.082,-2.94,0.24,7.65
22.097,0,-0.82,7.34
22.127,-2.98,0.78,9.85
22.163,-3.77,0.82,12.2
22.202,-2.24,-2.67,13.61
22.204,-3.1,-0.08,12.12
22.235,-2.94,2.16,12.79
22.269,-5.02,-4.98,16.36
22.307,-8.9,2.04,11.14
22.34,-3.96,-2.31,9.02
22.364,-3.1,-7.1,11.38
22.398,-2.31,-4.24,16.04
22.426,-2.94,0.82,12.28
22.46,-5.37,0.43,6.47
22.493,0.2,-3.06,5.3
22.524,-0.82,-2.86,5.49
22.569,0.16,-2.79,5.18
22.594,0.82,-2.67,6.67
22.617,0.67,-2.04,6.55
22.651,2.2,-3.06,7.57
22.682,2.12,-2.39,10.75
22.716,-0.27,-1.53,16.04
22.75,-3.69,-3.1,15.93
22.785,6.9,-4.75,13.42
22.819,-0.75,-0.47,13.1
22.85,-5.73,-10.63,11.85
22.884,-5.06,-4.28,9.81
22.922,-1.06,0.04,7.69
22.955,-4.24,-1.53,11.14
22.974,-4.2,-4.2,10
23.017,-1.69,-3.49,9.34
23.051,-2.28,-0.67,6.35
23.084,-2.86,0.12,7.81
23.118,-2.24,0,6.71
23.138,-1.26,-0.43,7.96
23.22,-1.37,-0.2,7.81
23.244,-3.1,-0.08,8.24
23.291,-4.51,-0.86,11.14
23.36,-3.92,-0.75,13.45
23.422,-0.31,-2.94,12.08
23.491,-3.22,3.18,10.83
23.494,-4.79,-3.65,15.69
23.56,-8.79,1.29,11.69
23.597,-3.26,-6.67,10.94
23.599,-2.94,-6.51,14.36
23.6,-5.45,-1.92,14.98
23.602,-5.18,0.78,7.53
23.604,0.16,-2.67,5.14
23.625,-1.26,-3.02,6
23.649,-0.2,-2.12,4.86
23.683,-0.47,-3.3,6.16
23.718,0.78,-2.16,5.88
23.75,1.65,-2.2,6.67
23.784,2.39,-2.12,10.28
23.818,1.45,-2.16,15.22
23.862,-4.79,-2.2,16.87
23.891,6.83,-4.63,13.77
23.908,3.49,-0.9,12.4
24.247,-5.88,-5.65,11.41
24.734,-4.9,-8.51,12.2
24.886,-0.9,-0.24,8.59
24.925,7.88,-1.8,5.6
24.928,0.75,-1.84,5.73
24.93,2.39,-1.8,11.14
24.947,-1.96,-2.82,16.59
24.972,7.88,-5.69,14.98
25.007,4.43,-2,13.45
25.043,-1.45,-0.43,10.04
25.076,-8.36,-10.51,13.26
25.11,-4.24,-4.35,12.28
25.145,-1.14,0.35,6.83
25.219,-1.02,-3.06,9.61
25.285,-4.39,-3.69,11.02
25.383,-2.12,-2.16,8.43
25.401,-2.35,-0.86,7.06
25.403,-2.71,-0.04,6.9
25.405,-2.71,-0.63,7.69
25.438,-3.06,0,8.04
25.467,-4.04,-1.14,11.14
25.499,-2.9,-1.41,13.06
25.536,-1.96,-1.37,11.53
25.567,-2.79,3.26,11.34
25.581,-2.71,-4.35,14.4
25.631,-8.98,-0.08,12.79
25.661,-9.53,0.9,9.34
25.689,-1.8,-7.22,10.4
25.763,-2.12,-5.41,14.4
25.831,-2.75,-0.2,14.47
25.875,-4.71,1.02,7.53
25.897,-0.71,-3.06,6.04
25.899,-0.43,-2.98,5.81
25.9,-0.43,-2.43,4.94
25.917,0.75,-2.79,7.34
25.946,0.63,-2.47,6.79
25.979,1.65,-2.43,6.2
26.012,1.8,-1.57,8.43
26.044,0.31,-1.06,13.93
26.064,-4.39,-3.37,16.79
26.097,6.47,-4.67,14
26.142,2.51,-3.22,14.87
26.164,-6.9,-9.34,13.73
26.196,-1.1,-5.22,7.85
26.218,-2.63,-0.12,8
26.255,-3.14,-1.88,12.83
26.287,-2.82,-4.67,10.16
26.321,-1.84,-3.22,9.34
26.355,-2.04,-2.12,7.3
26.392,-3.06,-0.31,7.18
26.426,-3.26,-0.55,7.53
26.462,-2.16,-0.31,7.88
26.5,-2.63,0,8.59
26.528,-0.98,0.16,6.98
26.55,-2.24,0.12,7.96
26.583,-4.9,-0.67,11.45
26.62,-2.43,-3.84,13.81
26.652,-4.04,3.61,11.65
26.685,-4.94,-1.02,16.55
26.714,-5.61,-1.96,12.87
26.747,-10.47,3.02,5.84
26.765,-5.22,-2.63,10.87
26.795,-1.57,-6.59,14.2
26.829,-3.57,-5.33,15.14
26.865,-2.51,-0.27,11.49
26.898,-0.78,-0.67,4.16
26.931,-2.28,-2.16,6.51
26.965,-0.47,-2.08,6.04
27.041,-0.39,-1.92,5.69
27.108,1.18,-2.43,6.32
27.177,1.26,-2.39,6.86
27.215,1.69,-2.24,7.1
27.252,2,-1.57,11.18
27.317,-2.55,-3.37,16.08
27.38,5.1,-2.43,12.94
27.415,-0.35,-0.86,9.65
27.433,-10.51,-11.81,13.3
27.435,-4.04,-4.43,11.73
27.457,-1.69,-2.39,9.89
27.479,-2.82,-0.39,6.71
27.516,-2.67,-0.51,6.59
27.551,-1.53,-0.67,6.63
27.578,-3.45,0.04,9.06
27.615,-2.24,-0.24,7.41
27.644,-3.49,0.2,9.22
27.677,-3.69,0.04,12.71
27.697,-2.9,-1.41,12.87
27.722,-2,-2,11.3
27.758,-3.02,3.41,12.28
27.8,-2.59,-3.49,14.2
27.834,-7.53,-0.51,12.12
27.867,-7.49,2.71,6.55
27.896,-4.75,-5.96,11.57
27.915,-2.9,-8.2,15.18
27.944,-5.14,-2.51,15.3
27.978,-3.65,0.51,9.1
28.01,0.47,-1.29,4.94
28.042,-1.84,-2.35,6.98
28.078,-1.29,-2.67,5.69
28.116,-0.51,-2.59,6.39
28.148,-0.31,-2.43,7.06
28.18,1.73,-2.12,7.18
28.212,2.82,-2.31,8.67
28.248,1.22,-1.57,13.26
28.323,-5.1,-2.63,16.2
28.391,10.87,-5.65,13.06
28.432,4.94,-0.82,12.2
28.455,-4.51,-5.77,13.22
28.477,-4.08,1.33,9.81
28.507,-1.8,-3.06,8.98
28.539,-2.51,-4.47,11.34
28.58,-1.26,-2.16,8.2
28.608,-1.77,-1.26,6.67
28.626,-2.79,-0.04,6.79
28.65,-2.24,-0.24,7.61
28.685,-1.8,-0.12,8.39
28.719,-1.37,0.04,7.3
28.753,-3.37,0,9.18
28.792,-4.39,-0.08,12.24
28.819,-2.16,-2.31,13.26
28.852,-1.84,3.3,10.71
28.927,-2.16,-2.39,13.85
28.994,-5.73,-3.02,13.61
29.076,-12.16,3.77,8.67
29.11,-5.69,-4.08,11.02
29.138,-3.14,-6.71,13.26
29.158,-1.65,-2.79,6.59
29.176,0.71,-3.06,5.3
29.21,-0.75,-1.92,5.45
29.247,1.06,-1.96,5.45
29.279,0.55,-1.88,6.79
29.306,1.88,-2.67,7.49
29.343,1.29,-2.94,10.87
29.374,-1.06,-0.98,17.46
29.405,4.39,-4.55,14.44
29.424,6.16,-1.8,14.47
29.458,1.49,0.71,9.45
29.498,-5.81,-8.79,10.12
29.532,-5.77,-7.85,13.14
29.604,0.39,-0.08,7.92
29.641,-2.86,-2.31,8.75
29.679,-4.04,-3.92,10.12
29.717,-1.41,-2.94,9.49
29.756,-2.63,-0.04,6.79
29.757,-2,-0.2,6.55
29.759,-2.94,-0.47,6.79
29.778,-2.24,-0.94,8.08
30.095,-1.61,-0.43,8.67
30.59,-3.49,-0.08,8.79
30.621,-3.18,-0.27,11.49
30.629,-3.37,-1.69,11.85
30.651,-2.39,-2.79,10.59
30.671,-1.8,0.31,7.61
30.703,-1.14,-3.37,9.3
30.783,-2.82,-3.92,10.04
30.821,-2.39,-0.67,6.98
30.856,-3.37,-0.24,6.59
30.921,-3.22,-0.75,6.86
30.993,-1.14,-1.61,6.32
31.055,-2.94,-1.02,9.49
31.124,-1.69,-0.67,8.39
31.16,-1.8,-3.06,13.06
31.162,-2.71,2.2,10.55
31.178,-4.39,-5.1,14.28
31.18,-5.92,-1.26,10.36
31.204,-3.61,-7.45,12.75
31.236,-5.61,-3.14,15.85
31.272,-1.73,-0.78,8.83
31.307,-2.9,-0.39,5.49
31.34,-1.61,-2.82,6.16
31.374,-0.47,-2.51,5.41
31.407,-1.14,-2.59,6.43
31.441,-0.39,-1.88,6.94
31.475,0.86,-2.16,6.32
31.498,1.84,-2.55,7.88
31.543,1.53,-1.49,12.51
31.562,0,-0.98,17.57
31.6,3.92,-4.16,13.18
31.62,4.9,-3.41,13.53
31.65,0.86,-0.24,12.4
31.694,-8.94,-12.16,13.77
31.733,-1.45,-1.73,8.59
31.763,-3.33,0.16,7.49
31.798,-1.8,-3.3,11.65
31.829,-4.67,-4.39,11.38
31.849,0.04,-2.47,6.98
31.871,-1.22,-0.63,5.37
31.905,-3.06,-0.27,7.53
31.942,-2.04,-0.27,7.1
31.976,-3.73,-0.31,9.22
32.017,-1.77,-0.63,7.3
32.049,-2.63,0,9.61
32.082,-2.98,-0.2,11.73
32.109,-2.28,-2.12,12.67
32.174,-3.49,-0.2,12.12
32.241,-4.31,2.51,12.79
32.281,-3.61,-4.98,15.22
32.31,-10.98,3.33,9.92
32.334,-2,-5.02,13.1
32.354,-3.88,-1.1,13.1
32.389,-6.71,1.1,8.28
32.42,1.69,-2.79,4.63
32.453,-0.16,-2.39,5.49
32.487,-0.51,-2.35,5.1
32.522,0.39,-2.12,6.32
32.555,0.82,-2.63,6.75
32.587,2.12,-2.43,6.39
32.66,2.31,-1.29,8.9
32.699,-1.06,-1.92,14.55
32.733,-6.12,-2.47,16.59
32.801,4.43,-2.9,16.55
32.83,2.04,0.86,10.4
32.832,1.1,-0.43,6.04
32.864,-5.49,0.35,9.38
32.9,-2.43,-5.22,9.14
32.934,-1.92,-4.31,11.02
32.966,-2.28,-0.59,5.96
32.997,-1.61,-0.43,5.96
33.046,-2.86,-0.47,6.67
33.08,-2.28,-0.55,7.85
33.1,-1.96,-0.59,8.47
33.12,-1.65,0.27,8.59
33.152,-2.2,0.78,10.47
33.186,-2.67,-1.8,13.14
33.225,-2.63,-0.51,11.65
33.263,-2.79,3.1,11.85
33.295,-3.88,-6.75,15.49
33.327,-9.1,1.06,11.26
33.362,-8.36,0.51,8.83
33.392,-2.94,-6.94,10.55
33.462,-4.71,-5.92,14.91
33.53,-4.16,0.27,12.59
33.561,-4.59,0.75,6.79
33.579,-1.57,-2.71,6.75
33.601,-0.16,-2.16,5.3
33.603,0.12,-2.31,6.59
33.631,1.02,-2.24,7.06
33.687,1.73,-2.12,6.24
33.727,1.29,-1.26,8.71
33.748,-0.9,-2.35,14.75
33.769,-3.14,-3.61,15.61
33.8,7.81,-4.51,14.63
33.837,2.98,1.1,11.69
33.878,-6.35,-5.57,11.81
33.902,-2.98,-7.92,12.16
33.935,0.35,0.08,6.86
33.969,-4.43,-0.2,8.39
34.011,-2.55,-4.55,8.87
34.038,-1.84,-3.61,10.04
34.076,-3.1,-0.47,7.69
34.109,-2.67,-0.24,6.94
34.13,-2,-0.31,6.75
34.15,-1.53,-0.75,7.96
34.186,-2.47,-0.63,9.26
34.225,-2.9,0.12,9.06
34.262,-2.39,0.39,10.47
34.294,-3.73,-0.98,12
34.325,-2.24,-2.9,12.67
34.359,-2.82,2.47,10.59
34.389,-4,-2.63,14.4
34.411,-9.18,1.49,12.71
34.44,-9.89,1.02,8.75
34.506,-1.69,-7.18,9.3
34.573,-2.47,-6.39,13.89
34.611,-3.1,-1.49,14.32
34.64,-5.3,1.14,8.94
34.71,-0.9,-2.71,4.94
34.781,-0.39,-2.43,5.41
34.854,-1.14,-2.9,6.08
34.891,0.51,-2.86,6.86
34.893,1.18,-2.31,7.26
34.916,1.8,-1.53,8.55
34.918,0.04,-1.84,13.26
34.936,7.53,-4.59,14.16
34.939,0.59,0.27,13.77
34.963,-7.3,-7.18,13.02
34.986,-1.57,-8.16,8.16
35.022,-1.96,-0.82,7.1
35.052,-3.37,-2.86,12.2
35.09,-5.06,-4.43,10.36
35.123,-0.75,-2.63,7.73
35.156,-3.41,-0.51,6.79
35.19,-2.82,-0.55,6.94
35.224,-2.75,-0.47,6.71
35.256,-2.9,-0.2,7.77
35.29,-3.41,0.12,9.22
35.323,-3.41,0.16,9.45
35.356,-3.22,-0.51,11.61
35.379,-3.61,-0.94,13.22
35.405,-2.16,-0.86,12.2
35.438,-3.1,2.28,11.06
35.471,-2.82,-4.31,14.32
35.504,-9.57,0.9,13.65
35.543,-3.92,-2.94,8.24
35.577,-3.69,-6.83,10.43
35.611,-0.98,-4.86,13.93
35.636,-4.28,-0.55,12.08
35.953,-4.43,1.02,6.63
36.435,-1.22,-2.39,6.51
36.55,-0.55,-2.55,6.12
36.586,-3.73,-2.16,11.92
36.591,-2.47,-2.12,8.87
36.597,-3.47,1.57,8.47
36.621,-11.26,2.51,7.53
36.646,-3.45,-4.24,10.08
36.682,-1.77,-6.98,13.42
36.706,-2.86,-2.39,13.89
36.737,-5.22,1.53,8.98
36.771,1.26,-2.16,3.69
36.804,-0.78,-2.59,6.67
36.838,-1.26,-2.47,4.9
36.87,0.04,-2.82,5.84
36.903,0.35,-2.47,7.41
36.939,2.24,-2.35,6.94
36.967,1.96,-1.22,9.02
37.002,0.24,-1.1,14.08
37.036,-5.92,-2.2,16.24
37.058,8.32,-5.3,13.61
37.081,2.82,-0.63,12.63
37.108,-8.04,-5.33,12
37.143,-2.59,-9.45,11.73
37.184,-0.55,0.12,6.47
37.214,-4.75,-0.9,9.73
37.287,-3.45,-5.57,10.79
37.354,-1.26,-3.73,9.53
37.389,-2.35,-0.55,6.55
37.416,-2.67,-0.51,6.24
37.439,-0.63,-0.59,7.49
37.467,-3.1,0.24,8.83
37.5,-3.45,0.75,10.2
37.531,-3.65,-0.75,12.36
37.567,-2.31,-2.86,13.38
37.602,-2.82,2.35,10.87
37.636,-2.47,-0.94,13.69
37.671,-6.47,-1.1,12.98
37.698,-12.08,3.41,8
37.732,-3.02,-4.86,10.55
37.753,-2.39,-6.83,13.89
37.785,-4.79,-2.9,14.95
37.817,-1.8,-0.04,9.85
37.854,-1.88,-0.98,5.22
37.887,-0.82,-2.82,7.1
37.923,-0.71,-2.08,5.02
37.966,-0.63,-2.28,6.16
37.997,1.1,-2.43,6.63
38.023,1.14,-2.63,6.94
38.064,1.96,-2.43,7.81
38.087,1.61,-1.18,11.57
38.113,0.12,-0.98,17.77
38.144,7.45,-5.02,14.24
38.167,2.2,-1.33,15.06
38.236,-5.88,-2.86,12.43
38.314,-3.69,-11.45,12.59
38.386,-2.08,-1.73,9.02
38.414,-1.92,0,5.84
38.447,-1.73,-3.53,9.96
38.449,-2.47,-1.49,7.02
38.451,-1.18,-0.39,5.57
38.48,-2.98,-0.47,6.67
38.504,-2.71,-0.63,7.88
38.566,-2.08,-0.67,8.67
38.635,-2.82,-0.27,9.61
38.678,-1.65,0.43,9.22
38.713,-4.94,-0.08,13.38
38.715,-2.71,2.71,10.2
38.737,-1.41,-1.29,12.79
38.759,-5.1,-4.28,14.16
38.794,-11.38,2.94,7.45
38.818,-5.57,-2.55,11.14
38.855,-2.43,-7.53,13.34
38.897,-4.35,-2.16,14.98
38.926,-2.94,0.31,8.47
38.951,0.08,-1.41,4.59
38.976,-1.14,-2.39,6.39
39.01,-0.43,-2.39,5.18
39.044,-0.31,-2.67,5.88
39.081,0.75,-2.71,7.26
39.113,1.29,-2.28,6.51
39.143,2.24,-1.77,8.79
39.177,0.67,-0.67,13.81
39.209,-2.43,-2.47,16.28
39.242,8,-5.37,14.36
39.272,2.55,-1.53,14.36
39.298,-7.41,-5.3,14.08
39.327,-1.45,-9.1,9.96
39.359,-2.31,-0.27,8.12
39.392,-3.41,-1.8,11.65
39.427,-3.18,-4.2,9.61
39.461,-2.63,-2.71,9.14
39.496,-2.98,-0.71,6.67
39.524,-2.43,-1.1,6.86
39.549,-2.82,-0.9,7.02
39.576,-2.51,-0.55,7.57
39.609,-1.73,0,8.12
39.641,-2.55,0.24,8.67
39.688,-3.92,-0.47,10.79
39.726,-3.57,-0.9,12.55
39.757,-1.65,-2.79,12.59
39.779,-1.57,2.79,10.24
39.836,-2,-0.94,13.53
39.905,-8.28,-3.49,12.47
39.943,-10.16,1.69,8.55
39.97,-1.06,-5.53,9.38
39.973,-0.59,-6.94,12.16
40.007,-2.59,0.86,9.26
40.03,0.27,-2.35,4.82
40.101,-1.1,-2.51,6.94
40.171,-0.43,-2.55,5.02
40.239,0.39,-2.71,6.39
40.275,0.78,-2.31,7.06
40.298,1.88,-2.08,7.26
40.3,2.04,-2.51,9.53
40.323,0.78,-1.22,13.1
40.348,7.65,-4.9,14.75
40.381,2.67,0.59,10.75
40.408,-4.55,-9.57,11.14
40.433,-3.49,-8.36,11.26
40.471,0.31,-0.82,7.06
40.473,-4.55,-0.67,9.61
40.502,-2.75,-4.55,9.22
40.54,-3.06,-3.49,10.67
40.572,-3.02,-0.59,6.83
40.606,-2.28,-0.39,6.94
40.639,-2.47,-0.43,7.41
40.673,-1.37,-0.43,8.16
40.705,-0.24,0.24,8.08
40.741,-1.84,0.94,8.55
40.773,-3.14,-0.04,10.12
40.808,-3.77,-1.06,11.53
40.839,-2.82,-2.63,12.55
40.872,-2.55,3.41,10.47
40.905,-3.3,-4.86,15.85
40.929,-8.04,0.78,14.24
40.97,-8,0.04,8.04
40.998,-2.94,-5.77,9.34
41.03,-1.26,-5.02,11.85
41.072,-3.73,-0.63,13.77
41.1,-3.88,0.71,8.55
41.143,-1.1,-2.28,6.39
41.172,-0.43,-2.51,5.88
41.215,-1.02,-3.06,6.12
41.256,-0.35,-3.1,6.59
41.258,0.59,-2.31,6.83
41.284,1.18,-1.92,6.59
41.32,2.28,-1.02,9.14
41.346,1.22,-1.53,13.61
41.387,-5.3,-2.9,16.91
41.411,7.49,-5.18,14.91
41.443,3.77,0.51,12
41.801,-5.41,-3.77,12.24
42.286,-5.33,-11.49,14.28
42.321,-0.35,-1.73,9.53
42.343,-3.96,-0.24,7.65
42.347,-2.39,-3.8,9.96
42.354,-2.86,-3.77,10.71
42.39,-2.9,0.69,11.85
42.395,0.39,-2.47,7.1
42.435,1.92,-2,7.92
42.469,1.92,-1.49,11.57
42.518,-0.94,-1.65,16.08
42.551,0.67,-4,15.53
42.553,6.2,-2.39,14.24
42.578,1.29,0.94,10.12
42.601,-5.3,-9.3,11.3
42.638,-5.53,-2.71,13.81
42.663,-0.86,-0.12,6.86
42.702,-1.61,-2.79,9.38
42.73,-3.45,-3.33,10.08
42.762,-2.67,-2.39,9.69
42.794,-2.39,-0.47,6.67
42.819,-2.55,-0.04,6.79
42.843,-2.12,-0.82,7.49
42.885,-1.88,-1.18,7.96
42.916,-1.37,-0.04,8.79
42.941,-2.12,0.86,9.57
42.981,-2.16,0.63,10.75
43.01,-2.98,-2.28,12.83
43.049,-2.59,-1.69,11.1
43.076,-2.51,2.31,12.47
43.118,-3.18,-5.3,15.06
43.12,-10.9,4,9.69
43.15,-5.61,-0.63,9.3
43.186,-3.77,-7.14,12.36
43.217,-1.96,-4.63,13.57
43.251,-4.08,0,11.49
43.286,-4.79,0.39,7.61
43.318,-1.57,-2.39,6.59
43.352,-0.82,-2.47,6.12
43.384,-0.47,-2.79,5.88
43.42,0.55,-3.22,7.02
43.452,0.51,-2.12,7.06
43.486,2.47,-2.67,7.57
43.518,2.86,-1.65,10.43
43.55,0.47,-2.63,15.02
43.592,5.18,-5.22,14.71
43.631,4.2,-1.65,13.73
43.692,-1.96,-2.86,11.85
43.763,-5.02,-12.36,10.9
43.834,-2.75,0.27,9.1
43.898,-2.79,-2.08,10.08
43.933,-4.59,-3.26,10.9
43.97,-2.75,-2.16,8.71
44.032,-1.84,-0.47,6.39
44.065,-2.86,0.31,7.41
44.067,-2,0.08,8.04
44.098,-3.1,-2.24,12.94
44.132,-2.43,-0.67,11.02
44.166,-3.69,2.35,12.28
44.199,-2.9,-4.63,13.85
44.229,-8.47,0.63,10.63
44.262,-8.51,2.2,7.3
44.295,-4.04,-4.79,13.45
44.324,-2.94,-4.59,13.22
44.361,-2.24,-0.12,11.85
44.393,-4.98,1.49,6.98
44.422,0.39,-2.98,6.32
44.46,-0.86,-2.59,6.2
44.489,-0.35,-2.35,5.49
44.515,0.08,-2.55,6.35
44.548,0.98,-2.59,7.45
44.578,1.84,-2.12,6.83
44.607,3.41,-1.84,10.16
44.645,-1.96,-2.08,16.32
44.674,-2.31,-4.08,14.59
44.712,7.73,-2.94,14.36
44.741,2.39,1.8,9.45
44.777,-4.35,-7.61,10.04
44.811,-5.49,-10.28,15.02
44.837,0.47,0.31,6.51
44.876,-2.39,-1.14,8.75
44.905,-3.14,-3.53,10.24
44.945,-3.14,-2.79,10.83
45.053,-1.65,-0.75,6.71
45.094,-2.67,0,7.14
45.096,-0.82,0.24,7.45
45.122,-2.55,0.2,9.02
45.159,-4.59,-0.35,12.2
45.187,-3.61,-1.92,13.96
45.229,-1.57,-1.8,11.92
45.256,-3.77,2.86,11.92
45.293,-3.22,-4.16,15.02
45.321,-10.2,2.47,10.12
45.36,-6.39,0.35,7.61
45.362,-3.69,-5.92,11.18
45.394,-2.28,-5.92,14.47
45.426,-3.92,-0.43,12.91
45.461,-5.1,1.37,7.65
45.494,0.55,-2.67,5.57
45.529,-0.55,-2.08,6.32
45.562,-0.59,-2.59,5.45
45.598,0.39,-2.82,6.83
45.671,0.31,-2.04,6.79
45.709,2.43,-2.39,7.37
45.742,2.82,-2.55,9.92
45.806,-1.49,-2.31,14.95
45.841,-5.49,-2.08,16.04
45.843,5.73,-2.47,14.55
45.877,-0.67,0.55,9.92
45.878,-6.98,-9.81,11.92
45.904,-3.92,-5.49,12.28
45.933,-0.04,-0.47,6.71
45.973,-3.14,-2.24,8.71
46.002,-3.1,-4.08,10.12
46.041,-1.53,-3.06,10.04
46.069,-2.31,-0.24,6.71
46.109,-1.57,-0.2,7.18
46.138,-1.77,0,7.37
46.14,-1.88,-0.39,8.2
46.175,-0.78,-0.63,7.1
46.206,-2.51,0.04,8.9
46.264,-3.37,0.31,11.77
46.306,-2.04,-1.77,12.2
46.343,-2.9,0.63,10.94
46.375,-2.75,3.06,13.34
46.405,-9.1,0.51,9.45
46.431,-7.41,-0.04,9.06
46.471,-2.28,-6.47,11.89
46.496,-2.39,-5.26,15.38
46.52,-2.82,0.9,12.75
46.557,-1.26,-0.59,5.92
46.582,-1.06,-2.39,6.71
46.624,-1.57,-2.63,6.47
46.657,0,-2.63,5.61
46.688,0.86,-2.47,6.39
46.724,0.39,-2.39,6.47
46.752,2.24,-2.2,6
46.789,2.51,-1.22,10.94
46.82,-1.45,-1.26,16.87
46.86,1.69,-5.1,17.06
46.905,5.84,-2.28,14.44
46.939,1.29,0.63,8.75
46.966,-6.04,-7.96,8.9
47.001,-8.67,-9.49,16.04
47.03,-2.2,-0.59,8.47
47.061,-0.98,-1.65,7.53
47.087,-3.26,-2.82,9.92
47.135,-0.67,-3.26,7.88
47.156,0,-1.29,6.86
47.179,-3.49,0.59,7.3
47.215,-1.57,0.31,7.02
47.239,-1.57,-0.31,8.28
47.263,-2.75,-0.75,8.87
47.299,-3.33,-0.16,9.73
47.326,-3.33,0.16,11.49
47.645,-2.55,-2.75,13.77
48.141,-3.14,0.67,11.18
48.185,-1.65,1.26,12.51
48.187,-10.36,2,9.69
48.195,-5.37,-2.51,11.73
48.202,-2.31,1.02,6.43
48.231,-0.63,-0.71,6.08
48.262,-1.92,-0.59,6.12
48.292,-3.14,-0.51,6.55
48.326,-4.43,0,9.45
48.355,-2.12,0.08,9.3
48.384,-2.98,0.24,9.73
48.417,-3.96,-0.16,11.26
48.457,-4.04,-1.45,12.08
48.485,-2.24,0.04,11.18
48.519,-1.84,1.33,11.57
48.547,-3.69,-6,15.38
48.549,-10.47,2.63,11.26
48.586,-6.94,-1.49,9.1
48.617,-3.49,-7.34,10.43
48.658,-2.67,-5.49,13.93
48.701,-4.43,0.04,13.45
48.73,-4.59,0.86,6.83
48.766,-0.86,-3.26,6.24
48.822,0.47,-2.94,5.37
48.891,0.67,-2.67,6.71
48.934,-0.12,-2.43,7.26
48.966,-1.29,-2.39,15.61
49.006,0.98,-4.63,15.22
49.05,5.26,-2.55,13.93
49.081,-2.12,-2.35,10.94
49.083,-6.08,-10.47,13.14
49.117,-3.14,-3.41,9.81
49.169,-2.31,-0.27,8.55
49.216,-1.49,-3.37,9.49
49.217,-1.8,-3.65,10.71
49.251,-2.16,-1.49,7.26
49.282,-1.77,-0.27,5.22
49.314,-3.53,-0.75,7.85
49.394,-3.22,0.27,8
49.462,-2.12,-0.16,7.96
49.528,-4.71,0.16,12.67
49.565,-3.88,-1.22,12.24
49.593,-1.14,-3.84,12.43
49.629,-6.55,-3.33,12.91
49.664,-12.16,1.26,7.22
49.697,-2.47,-7.14,11.53
49.731,-1.65,-8.98,14.87
49.763,-9.57,0.2,16.24
49.802,-4.75,1.37,7.45
49.838,-1.61,-2.55,6.04
49.84,-0.98,-4.67,7.22
49.872,-0.31,-5.14,6.39
49.912,-0.27,-4.12,7.81
49.94,1.49,-3.37,7.45
49.982,2.71,-2.47,6.94
50.015,4.16,-2.39,9.61
50.043,3.69,-2.47,12.12
50.096,6.39,-3.26,11.18
50.161,-8.9,-7.85,7.73
50.196,1.77,-14.32,15.26
50.233,-4,-4.43,6.2
50.235,-1.88,-2.55,10.59
50.262,-0.43,-4.86,11.38
50.296,-1.57,-4.9,11.65
50.331,-0.31,-2.71,9.3
50.363,-0.47,-2.39,8.63
50.399,-1.37,-1.84,8.2
50.445,-2.94,-1.53,7.1
50.477,-1.61,-2.35,5.65
50.511,-2.04,-2.75,5.77
50.547,-2.59,-0.24,6.67
50.577,-1.92,-0.9,6.79
50.61,-3.73,-0.59,8.24
50.642,-4.08,-0.31,10.75
50.676,-4.08,-0.51,12.67
50.712,-2.59,-0.71,11.65
50.747,-4.2,3.53,12.55
50.749,-3.57,-4,13.57
50.784,-6.59,-2.47,11.41
50.827,-12,1.73,7.3
50.829,-3.02,-6.12,11.02
50.86,-2.08,-9.69,14.51
50.893,-7.34,-3.02,10.63
50.926,-1.96,-1.45,7.26
50.958,-1.37,-2.63,8.08
50.999,-1.26,-2.04,6.98
51.031,-0.78,-1.73,6.24
51.07,0.27,-1.26,7.26
51.111,0.9,-1.61,7.02
51.143,1.61,-3.18,6.63
51.175,2.08,-1.88,7.1
51.208,3.18,0.16,9.61
51.255,-2.35,-1.33,14.63
51.327,7.49,-4.28,13.73
51.396,-2.94,-3.61,8.9
51.463,-6.83,-10.43,13.61
51.536,-5.77,-2.71,14.87
51.588,-1.77,-4.94,8
51.623,-3.33,-4.43,10.67
51.627,-2.47,-1.53,8.59
51.662,-1.88,0.2,7.88
51.692,-0.82,1.18,9.45
51.724,-2.75,0,11.26
51.758,-3.02,-2.79,11.92
51.795,-2.28,1.02,10.16
51.843,-2.2,-2.9,12.98
51.872,-5.37,-5.65,13.06
51.908,-10.47,2.28,9.53
51.942,-3.49,-3.57,10.51
51.978,-3.57,-7.53,13.77
51.98,-2.67,-3.61,14.59
52.009,-3.84,0.08,9.38
52.058,-0.55,-1.41,5.14
52.091,-1.49,-3.1,7.85
52.093,-0.67,-3.37,7.22
52.128,-0.04,-2.2,5.37
52.172,0.86,-2.04,6.67
52.206,1.65,-2.16,6.83
52.237,2.28,-1.06,6.55
52.267,2.79,-0.39,9.96
52.314,-1.84,-2.79,15.42
52.346,3.49,-5.96,18.51
52.379,4.86,0.9,11.22
52.411,-4.98,-6.2,9.85
52.442,-4,-13.45,14
52.487,-2.2,-2.67,11.38
52.522,-5.14,0.59,7.81
52.525,-0.35,-4.08,8.87
52.563,-5.22,-3.33,11.81
52.602,-2.08,-1.18,8.24
52.645,-2.63,-1.77,7.1
52.715,-5.37,-0.94,9.18
52.756,-2.71,0.39,7.14
52.789,-1.18,0.04,7.18
52.791,-1.53,0.63,9.69
52.827,-5.3,0.24,12
52.858,-1.1,-4.04,12.04
52.86,-2,3.73,11.14
52.908,-3.3,-3.53,14.59
52.948,-7.34,-2.98,11.65
52.977,-8.9,1.02,9.34
53.02,-3.1,-3.3,10.16
53.052,-3.06,-5.02,13.14
53.1,-3.77,-3.33,15.18
53.143,-3.84,-0.2,6.2
53.185,0.67,-2.59,5.96
53.497,-0.59,-2.79,5.81
53.985,-0.59,-2.55,7.37
54.132,0.63,-2.12,6.59
54.171,1.96,-1.77,5.81
54.218,-0.27,-3.1,7.69
54.22,-7.37,-2.08,14.98
54.254,-1.45,-2.2,6.08
54.291,0.04,-2.39,6.32
54.325,0.2,-2.39,6.35
54.359,1.06,-2.82,5.96
54.401,2.16,-2.67,5.45
54.434,2.51,-1.53,7.37
54.469,-3.61,-0.51,17.02
54.504,0.35,-4.79,18.32
54.538,4,-6.28,14.24
54.579,-4.67,-4,13.89
54.611,-1.84,-7.92,11.18
54.612,-3.88,-1.73,7.53
54.648,-3.84,-1.65,8.51
54.677,-1.77,-4.59,11.34
54.718,-2.67,-3.22,9.85
54.72,-3.22,-1.02,7.88
54.755,-3.45,-0.94,7.53
54.788,-3.73,-1.1,8.32
54.831,-2.28,-0.47,7.22
54.865,-2.47,-0.27,7.1
54.898,-3.26,-0.2,7.85
54.936,-0.24,0.24,7.85
54.981,-2.71,-0.67,10.67
54.982,-1.57,-3.88,12.83
55.054,-4,0.78,13.26
55.117,-4.31,1.18,14.71
55.249,-4.82,-4,14.28
55.316,-11.18,2.75,12.4
55.363,-3.3,-5.22,12.32
55.364,-1.77,-2.43,14.16
55.367,-3.88,-1.49,9.96
55.401,-0.12,-2.63,6.39
55.449,0.94,-2.9,6.51
55.478,1.84,-2.43,7.85
55.513,2.35,-1.84,12.79
55.552,-0.59,-1.53,17.38
55.555,4.75,-5.14,12.98
55.59,2.24,-4.31,13.42
55.619,-0.31,-1.53,13.73
55.665,-1.96,-9.34,10.24
55.7,-2.24,-0.75,10.79
55.733,-1.29,-0.2,7.49
55.777,-1.33,-3.61,11.53
55.81,-4.79,-3.8,11.41
55.847,-0.94,-1.77,7.92
55.881,-2.31,-0.43,5.96
55.914,-3.49,-1.1,8.63
55.952,-1.88,-1.18,7.65
55.954,-2.71,-0.9,8.16
55.99,-1.88,-0.16,6.9
56.028,-2.24,-0.16,7.88
56.062,-2.79,-1.22,10.36
56.065,-3.14,-2.82,11.85
56.096,-4,0.08,11.41
56.139,-1.33,0,13.38
56.174,-3.8,-3.57,14.36
56.209,-10.59,2.71,10.67
56.25,-8.24,2.59,8
56.255,-4.35,-5.53,10.2
56.297,-2.63,-6.43,15.02
56.347,-4.39,-2.2,13.1
56.38,-3.26,-1.18,8.12
56.382,0.39,-2.47,6.59
56.416,-0.12,-2.43,5.84
56.451,-0.9,-2.51,5.73
56.5,0.31,-1.84,4.9
56.542,0.47,-2.24,5.96
56.574,0.78,-2.71,5.69
56.611,2.59,-1.49,8.94
56.657,2.63,-2.71,14.98
56.659,-0.55,-3.45,15.26
56.689,5.53,-4.28,13.81
56.73,4.35,-0.63,14.63
56.761,-5.45,-4.86,12.4
56.799,-4.24,-9.41,10.55
56.837,-1.84,-0.59,11.26
56.875,-0.9,-0.16,4.98
56.91,-1.06,-3.33,10.28
56.975,-3.02,-2.75,10.71
57.03,-3.22,-1.02,7.41
57.075,-2.28,-0.75,8.83
57.107,-2.79,-0.24,8.79
57.139,-3.45,-0.31,12
57.174,-3.37,-2.9,12.12
57.212,-3.53,-1.33,12.12
57.245,-3.1,2.63,10.98
57.25,-1.8,-4.47,13.77
57.283,-4.67,-2.39,11.26
57.331,-11.06,4.75,6.2
57.366,-5.77,-3.92,12.47
57.41,-1.61,-8.39,15.42
57.443,-5.02,-0.82,14.12
57.482,-2.59,-0.24,8.2
57.516,-1.02,-2.16,5.14
57.518,-2.43,-2,7.3
57.558,-0.43,-1.88,4.79
57.599,-0.27,-2.55,5.81
57.638,0.12,-2.63,7.49
57.669,1.33,-2.63,5.81
57.702,3.1,-2.47,8.24
57.736,2.08,-1.41,13.34
57.782,-1.92,-1.49,16.95
57.827,6.51,-4.9,15.1
57.873,4.12,1.06,12.94
57.904,-5.65,-4.16,10.47
57.909,-5.81,-9.34,14.32
57.95,-3.26,1.77,6.63
57.987,-1.73,-4.86,8.43
58.026,-3.57,-3.77,13.57
58.059,-1.65,-1.8,7.77
58.06,-2.43,-0.82,6.12
58.094,-2.71,-1.88,7.61
58.127,-2.9,-0.86,8.32
58.167,-1.14,-0.31,6.67
58.209,-2.47,0.35,6.59
58.243,-3.65,-0.39,9.38
58.281,-3.73,-3.14,12.12
58.317,-3.3,-3.3,12.32
58.352,-2.16,4.2,11.38
58.396,-1.88,-2.86,14.87
58.398,-8.63,0.08,9.92
58.444,-7.92,2,8.16
58.476,-2.47,-2.79,11.14
58.478,-2.79,-5.65,14.75
58.516,-4.08,-1.49,15.18
58.548,-1.92,-1.49,9.81
58.588,-1.92,-1.69,5.92
58.621,-2.08,-2.31,7.26
58.655,-0.04,-2.31,4.35
58.692,0.51,-1.33,6.32
58.694,0.27,-2.28,7.45
58.757,1.22,-2.79,6.59
58.826,1.88,-1.8,11.53
58.879,-2.31,-2.39,14.67
58.917,10.55,-3.88,15.02
58.919,-2.2,-0.43,10.08
58.951,-8.94,-12.47,17.14
58.992,-4.04,-0.63,13.3
59.032,-1.88,2.2,7.06
59.068,-3.45,-3.22,7.53
59.347,-5.81,-4.67,13.93
59.382,-0.43,-3.22,8.59
59.845,-1.77,-0.31,6.71
59.854,-3.06,-0.04,7.45
59.885,-3.52,9.06,9.92
59.923,-4.08,-2.75,14.08
59.962,2.12,-5.3,20.01
59.998,-0.71,-3.37,13.57
60.034,-6.75,-6.79,19.3
60.07,0.31,1.26,5.18
60.107,-5.41,0.94,11.69
60.152,-3.1,-5.02,10.67
60.154,-1.53,-6.51,11.57
60.187,-1.57,-2.35,8.75
60.216,-2.9,0.16,7.22
60.22,-3.8,0.63,6.47
60.261,-0.47,-0.82,6.71
60.296,-1.33,-0.78,7.85
60.336,-2.35,0.98,6.47
60.403,-2.43,0.04,6.47
60.448,-2.98,-0.63,9.89
60.48,-3.1,-2.59,12.63
60.523,-1.92,1.26,12.98
60.558,-9.14,-1.41,13.85
60.56,-10.16,2.43,8.43
60.613,-2.43,-7.81,11.81
60.681,-4.59,-5.22,14.98
60.737,-1.8,-0.82,17.1
60.779,-5.06,0.47,11.06
60.78,-2.63,-1.57,7.41
60.782,-2.71,-2.63,4.82
60.818,-0.9,-2.28,4.79
60.82,-1.53,-1.92,6.12
60.854,1.22,-3.02,5.77
60.897,1.1,-2.71,5.14
60.931,3.88,-3.1,6.04
60.932,5.18,-2.9,10.47
60.97,-2.31,-2.08,16.16
61.01,5.53,-3.45,15.81
61.047,0.82,-4.08,17.14
61.081,-8.75,-7.37,17.65
61.122,0.63,-4.43,3.61
61.164,-4.75,0.55,6.59
61.166,-1.73,-2.67,16.83
61.202,-2.08,-6.83,8.36
61.242,-1.69,-4.71,10.16
61.278,-4.63,-1.69,8.43
61.322,-1.61,-1.22,8.39
61.324,-2.86,0.59,7.53
61.361,-2.04,0.2,6.71
61.401,-1.88,-1.65,5.84
61.441,-3.18,-1.88,8.32
61.481,-2.31,-0.94,9.41
61.518,-2.86,-1.14,9.69
61.52,-5.14,-2.98,11.61
61.558,-3.49,0.59,9.41
61.608,-1.65,-0.43,11.53
61.64,-9.92,-1.92,10.47
61.692,-12.36,-2.86,10.47
61.728,-5.49,-1.61,15.49
61.781,-4.9,-1.1,10.71
61.815,-4.55,-5.26,8
61.853,-5.14,-2.9,7.06
61.891,-1.96,-3.92,6.39
61.927,-0.71,-5.96,5.96
61.967,-1.65,-3.26,7.88
61.969,-1.26,-0.98,10.55
62.012,-3.45,-0.55,8.2
62.046,0.27,-0.16,5.1
62.089,-2.98,0.39,9.53
62.091,-9.38,-1.69,20.01
62.135,-2.04,-3.41,8.2
62.172,-2.71,-2.43,4.71
62.212,-3.61,-2.31,8.94
62.255,-4.04,-1.73,11.22
62.291,-2.43,-0.71,10.08
62.293,-2.67,-0.43,9.96
62.33,-3.3,-0.39,10.4
62.365,-3.1,-1.57,9.3
62.406,-3.14,-1.65,9.92
62.451,-3.22,-2.55,10.04
62.453,-3.14,-2.35,9.77
62.501,-3.18,-1.65,9.65
62.566,-2.82,-0.43,10
62.609,-2.98,-0.82,10.59
62.611,-3.1,-1.37,10.12
62.661,-2.94,-1.69,9.57
62.695,-2.86,-2,9.53
62.736,-2.98,-1.84,10
62.773,-2.67,-1.73,10.04
62.813,-3.1,-1.92,10.04
62.815,-2.79,-1.92,9.89
62.817,-2.9,-1.88,9.89
62.854,-2.75,-2.35,10
62.9,-2.86,-1.96,9.92
62.965,-2.9,-1.73,9.89
63.005,-2.94,-1.69,9.69
63.007,-2.86,-1.84,10
63.009,-2.94,-1.8,9.81
63.055,-2.94,-1.69,9.73
63.115,-2.9,-1.77,10.04
63.15,-2.9,-1.73,10
63.153,-2.9,-1.77,9.89
63.189,-2.86,-1.88,9.85
63.229,-2.71,-1.92,10.16
63.262,-2.75,-1.8,10.08
63.3,-2.86,-1.73,10.08
63.338,-2.71,-1.69,9.85
63.381,-2.82,-1.61,9.92
63.384,-2.63,-1.77,9.89
63.418,-2.63,-1.73,10.12
63.446,-2.67,-1.65,9.92
63.472,-2.71,-1.69,9.92
63.504,-2.86,-1.61,9.96
63.534,-2.75,-1.69,9.96
63.565,-2.71,-1.65,9.92
63.599,-2.67,-1.77,9.92
63.601,-2.63,-1.61,10.12
63.629,-2.71,-1.61,10.12
63.669,-2.55,-1.65,9.96
63.7,-2.55,-1.65,10.04
63.76,-2.59,-1.73,10
63.795,-2.67,-1.69,9.89
63.828,-2.63,-1.77,10.04
