NAME:,walk_4_1.csv,,
EXPERIMENT TIME:,23/05/2022 21:03,,
ACTIVITY TYPE:,Walking,,
COUNT OF ACTUAL STEPS,124,,
,,,
Time [sec],ACC X,ACC Y,ACC Z
0.319,10,-1.64,-9.87
0.335,-0.13,-1.79,-10
0.349,-0.1,-1.51,-9.97
0.551,-2.71,0.28,-14.16
0.575,-1.92,-3.76,-14.11
0.597,0.64,-4.42,-10.76
0.619,2.94,-5.62,-7.67
0.641,4.17,-4.4,-7.98
0.887,2.63,-1.48,-10.63
0.909,0,-2.22,-10.02
0.932,-0.89,-2.51,-9.48
0.955,-0.38,-1.56,-7.82
0.977,0.69,-0.49,-5.98
1.001,-0.36,-0.54,-8.05
1.247,-0.41,1.87,-12.04
1.27,0.49,-0.41,-12.99
1.292,0.43,-0.72,-10.53
1.314,2.79,-0.03,-8.26
1.336,0.79,-0.33,-5.98
1.358,-1.3,-0.26,-5.83
1.623,-2.97,-0.41,-6.01
1.645,-1.81,-0.36,-6.37
1.667,-0.89,1.89,-7.95
1.69,-3.09,2.81,-11.53
1.714,-4.6,-0.64,-13.75
1.736,-6.37,0.2,-13.91
1.758,-3.89,2.99,-16
1.78,0.15,-2.43,-18.87
1.802,1.38,-7.57,-11.38
1.825,4.5,-5.88,-5.11
1.847,7,-2.66,-9.48
1.869,4.65,-0.69,-14.19
1.891,-1.92,1.74,-11.07
2.147,-2.97,-0.05,-7.46
2.169,-2.17,-2.2,-4.5
2.192,-0.56,-1.43,-3.27
2.215,0.82,-1.07,-2.25
2.237,0.56,-0.15,-4.22
2.26,-0.26,1.25,-10.51
2.282,-0.43,3.04,-18.46
2.304,-1.41,-1,-17.05
2.326,0.08,2.99,-14.85
2.348,1.2,0.41,-15.59
2.37,0.61,-6.93,-13.19
2.393,3.27,-5.32,-9.3
2.446,0.64,-3.37,-5.78
2.469,-4.4,-4.58,-6.52
2.491,-7.69,-4.17,-9.43
2.513,-2.02,1.35,-11.32
2.775,3.4,-0.28,-9.69
2.804,3.53,-0.89,-6.26
2.827,0.26,-2.35,-3.3
2.849,-1.51,-1.64,-2.38
2.872,1.84,-7.39,-13.57
2.895,2.97,-5.83,-8.15
2.917,4.45,-3.68,-10.43
2.94,3.37,-3.4,-14.24
2.962,-1.38,-0.33,-13.73
2.984,-0.64,-2.33,-2.86
3.007,-0.69,1.35,-15.29
3.253,1.12,-2.71,-22.16
3.276,2.05,-1.35,-14.57
3.298,4.42,-0.74,-14.57
3.32,2.43,-6.62,-13.93
3.342,3.37,-9.07,-10.46
3.364,0.31,-4.93,-5.42
3.386,-4.42,-5.19,-5.19
3.408,-6.77,-6.95,-8.77
3.43,-1.64,-2.17,-11.17
3.453,4.27,-0.49,-10.63
3.475,5.55,-0.84,-6.8
3.498,1.02,-0.84,-3.73
3.52,-2.45,-2.91,-3.76
3.544,-3.14,-2.25,-3.94
3.566,-1.92,-0.77,-8.05
3.844,-0.66,0.23,-13.04
3.867,-3.17,-1.56,-13.32
3.889,-8.38,0.03,-11.58
3.911,-3.2,0.03,-15.39
3.934,0.61,-6.06,-15.41
3.956,5.67,-7.64,-13.34
3.979,3.07,-1.94,-14.06
4.001,-1.07,-2.22,-1.87
4.023,0.43,1.1,-10.43
4.045,1.69,1.05,-17.56
4.068,2.61,-3.22,-14.88
4.09,3.35,-0.33,-14.06
4.354,5.8,-3.2,-16.54
4.376,3.17,-8.84,-13.62
4.399,1.43,-6.11,-7.54
4.421,-1.02,-5.52,-3.99
4.443,-2.35,-7.82,-7.23
4.466,-2.68,-3.91,-12.01
4.489,1.51,-2.53,-11.2
4.511,3.63,-1.38,-9.48
4.533,2.3,-1.51,-6.16
4.555,-1.18,-1.33,-3.94
4.578,-3.07,-1.58,-3.2
4.6,-2.45,-1.81,-3.94
4.622,-1.07,-0.72,-8.23
4.644,-1.35,1.71,-13.19
4.667,-3.78,-0.66,-13.96
4.69,-7.46,-1.66,-11.78
4.712,-5.73,0.08,-14.72
4.735,1.23,-4.58,-15.67
4.992,0.38,-6.37,-11.25
5.016,1.84,-5.52,-7.21
5.039,5.29,-6.34,-9.69
5.061,3.96,-3.94,-15.31
5.084,-1.05,-0.03,-15.08
5.107,-2.3,-1.05,-9.51
5.129,-1.58,-2.38,-4.73
5.152,-0.74,-0.79,-3.09
5.175,-0.03,-0.77,-1.25
5.197,0.05,-2.76,-0.92
5.219,-1.07,0.05,-5.16
5.242,0.77,0.69,-14.47
5.264,4.55,-4.24,-15.98
5.287,1.35,-6.31,-10.79
5.31,0.13,-3.86,-5.27
5.333,-2.15,-5.96,-4.96
5.356,-4.58,-6.83,-10.2
5.379,-2.84,-2.22,-13.11
5.665,2.76,-0.18,-10.3
5.688,4.45,-0.79,-7.36
5.712,1.33,-0.77,-4.68
5.735,-1.07,-1.64,-3.99
5.758,-2.63,-2.02,-3.99
5.782,-2.53,-0.56,-5.52
5.805,-2.76,0.92,-10.99
5.828,-3.99,0.38,-12.83
5.85,-6.85,-1.51,-10.97
6.168,-8.9,1.74,-13.47
7.633,0,-2.76,-11.12
8.119,3.07,0.61,-14.7
8.681,2.25,-2.02,-16.92
8.923,3.3,-1.92,-14.65
8.947,3.68,-5.9,-7.54
8.97,0.59,-3.89,-5.14
8.993,-3.32,-7.75,-8.18
9.016,-6.37,-2.91,-11.96
9.275,0.51,-0.51,-10.4
9.298,3.66,-1,-8.77
9.321,3.04,-1.56,-5.19
9.344,-0.28,-1.51,-4.19
9.368,-1.51,1.23,-13.24
9.39,-3.71,-0.26,-11.3
9.413,-8,-1.79,-10.17
9.436,-7.41,0.54,-15.59
9.458,1.71,-4.96,-17.18
9.481,1.3,-6.8,-10.63
9.503,2.99,-6.26,-6.95
9.758,5.98,-6.7,-12.73
9.781,5.52,-2.12,-14.88
9.804,-1,0.41,-12.73
9.826,-4.45,-0.95,-9.05
9.848,-3.43,-1.71,-4.32
9.87,-0.89,-0.46,-2.66
9.893,0.92,-0.87,-1.81
9.915,0.46,-1.38,-1.97
9.938,0.46,0.36,-7.41
9.961,0.84,-0.36,-15.87
9.984,0.77,-2.63,-16.41
10.007,2.71,-0.79,-13.83
10.03,4.42,-0.69,-15.26
10.053,2.35,-6.37,-13.37
10.076,3.2,-6.03,-9.51
10.099,0.56,-3.94,-5.06
10.354,-2.3,-7,-6.37
10.377,-5.67,-5.01,-11.15
10.4,-1.81,-1.76,-12.12
10.423,2.25,-0.89,-8.9
10.446,-1,-2.3,-3.83
10.469,-1.66,-1.66,-5.39
10.492,-1.74,-0.18,-8.82
10.515,-1.89,0.43,-11.89
10.537,-2.71,0.26,-12.93
10.56,-5.57,-2.12,-11.09
10.583,-8.97,0.95,-12.55
10.606,-0.18,-1.74,-17.56
10.628,1.46,-5.52,-14.26
10.651,0.84,-6.8,-9.23
10.674,4.83,-6.01,-9.18
10.697,6.57,-5.04,-14.03
10.72,1.94,-0.61,-13.91
10.742,-4.5,0.05,-10.38
10.765,-3.17,-2.22,-6.57
11.051,-1.25,-0.82,-3.83
11.078,0.33,-0.43,-2.61
11.101,0.84,-1.3,-1.33
11.124,-0.46,-0.56,-3.58
11.147,-0.28,0.77,-11.02
11.17,0.51,-0.33,-17.41
11.193,2.28,-2.76,-15.13
11.216,2.94,1.94,-14.34
11.239,4.98,-3.78,-15.18
11.265,2.61,-7.08,-11.89
11.288,2.07,-4.7,-8.28
11.311,-6.6,-4.32,-11.81
11.333,2.97,-1.38,-6.83
11.356,-2.63,-1.28,-3.04
11.38,-2.1,-0.08,-8.23
11.403,-1.71,0.97,-12.88
11.426,-3.91,-0.05,-12.7
11.708,-7.49,-1.66,-11.61
11.733,-7.06,1.71,-14.32
11.757,1.2,-3.89,-16.85
11.78,1.43,-6.42,-11.89
11.804,4.35,-3.35,-14.72
11.827,-0.41,-0.41,-12.78
11.85,-3.43,-0.95,-9.15
11.873,-3.55,-1.3,-6.67
11.896,-1.48,-0.69,-4.65
11.919,0.33,-1.12,-3.22
11.942,1.02,-1.87,-1.46
11.965,-0.2,-1.38,-3.53
11.989,-1.64,0.54,-11.66
12.011,0.28,-0.08,-18.18
12.034,3.37,-3.37,-14.49
12.057,2.66,1.81,-14.29
12.08,4.37,-4.01,-15.01
12.103,3.63,-9.71,-10.12
12.127,2.58,-5.52,-6.9
12.15,-1.02,-4.83,-4.83
12.42,-4.88,-8.41,-7.52
12.443,-4.96,-4.01,-11.48
12.467,0.33,-1,-11.61
12.49,5.34,-1,-9.59
12.513,2.79,-1.46,-4.96
12.536,-0.64,-1.64,-3.73
12.559,-1.56,-1.92,-4.42
12.582,-2.61,-1.18,-6.03
12.606,-3.04,0.54,-10.1
12.628,-3.02,0.05,-12.76
12.652,-4.04,0.15,-11.27
12.675,-7.44,-1.53,-10.33
12.699,-3.83,-0.84,-15.16
12.722,1.84,-5.29,-18.1
12.745,1.46,-7.34,-11.45
12.768,5.39,-4.91,-8.51
12.791,6.49,-6.16,-11.91
12.815,3.07,-2.02,-13.34
12.838,-2.15,0.56,-12.42
12.861,-3.27,-2.68,-8.64
12.884,-1.18,-2.4,-5.52
12.906,-0.51,-0.23,-3.83
13.178,0.46,-0.43,-2.48
13.201,0.05,-1.48,-1.53
13.224,2.28,-2.3,-17.61
13.247,3.43,-1.58,-15.11
13.27,3.3,1.58,-15.39
13.293,2.43,-5.73,-12.68
13.316,1.99,-6.9,-10.94
13.339,1.38,-4.29,-7.54
13.362,-0.89,-6.8,-6.62
13.385,-3.96,-8.31,-8.67
13.408,2.53,-1.38,-4.86
13.431,-0.95,-2.2,-3.78
13.454,-2.4,-2.51,-4.45
13.477,-2.33,-1.05,-6.9
13.501,-1.71,1.02,-11.25
13.524,-2.94,0.59,-13.01
13.547,-4.65,-0.64,-11.15
13.571,-8,-1.61,-10.46
13.594,-4.01,-0.92,-14.57
13.617,1.28,-4.4,-16.46
13.64,0.72,-7.08,-9.97
13.663,3.66,-5.6,-7.44
13.686,6.11,-5.32,-13.73
13.997,2.71,-1.23,-13.75
14.022,-2.07,-0.41,-10.86
14.045,-3.78,-1.53,-8.21
14.068,-2.15,-1.15,-6.21
14.092,-0.05,-0.89,-4.12
14.115,1.2,-1.43,-2.86
14.14,0.33,-1.53,-1.94
14.163,-1.28,0.2,-7.23
14.186,-0.05,-0.36,-16.16
14.209,1.94,-2.91,-15.16
14.232,1.84,0.84,-13.22
14.256,3.71,-0.79,-14.72
14.279,2.79,-6.19,-13.09
14.302,2.79,-6.01,-9.2
14.324,0.69,-4.17,-5.14
14.348,-2.17,-8.05,-6.54
14.371,-4.12,-4.73,-12.04
14.397,-0.89,-1.3,-12.63
14.944,-8.46,-0.49,-11.22
15.921,-1.41,-3.32,-16.16
16.412,2.48,-6.16,-14.8
16.95,1.94,-3.83,-16.77
16.984,1.2,-6.08,-11.55
17.244,2.1,-5.01,-7.44
17.267,4.86,-5.27,-10.86
17.291,2.99,-3.04,-13.98
17.314,-1.69,-0.03,-12.22
17.338,-3.5,-0.74,-9.53
17.361,-1.79,-1.92,-6.37
17.384,-0.28,-1.33,-4.14
17.407,0.56,-0.13,-3.07
17.43,0.49,-0.46,-3.04
17.709,-0.79,0,-5.21
17.733,-1.35,0.64,-11.35
17.757,0.66,-0.92,-15.49
17.78,2.71,-2.4,-14.7
17.803,2.79,2.71,-15.77
17.826,2.05,-4.55,-14.37
17.849,2.12,-6.31,-11.76
17.872,1,-3.55,-6.67
17.895,-2.12,-5.32,-6.19
17.917,-5.09,-5.75,-9.89
17.94,-1.87,-0.95,-11.43
17.963,3.02,-0.33,-9.87
17.986,-3.2,-1.41,-5.67
18.26,-3.6,-0.61,-5.98
18.284,-1.41,0.13,-7.92
18.307,0,0.77,-11.45
18.331,-0.59,1.84,-12.73
18.355,-4.78,-1.84,-11.07
18.378,-8.69,1.61,-11.63
18.401,-1.2,0.59,-16.9
18.425,0.66,-5.65,-17.18
18.447,2.81,-5.57,-8.15
18.47,5.55,-3.25,-8.84
18.494,4.22,-3.35,-14.26
18.516,-0.05,-0.41,-12.91
18.54,-3.22,0.49,-9.15
18.563,-2.38,-1.18,-7.03
18.586,-0.77,-0.59,-3.99
18.609,0.28,-1.05,-2.86
18.895,0.61,-1,-2.43
18.919,-0.41,-0.41,-3.89
18.942,-1.58,1.43,-11.53
18.965,0.82,-0.59,-16.72
18.988,3.78,-6.85,-13.93
19.011,1.2,-3.02,-7.75
19.035,-1.02,-5.98,-4.86
19.058,-3.81,-6.77,-8.56
19.08,-3.43,-0.54,-11.86
19.104,0.64,0.15,-11.71
19.127,4.32,-1.28,-7.87
19.15,2.15,-0.72,-4.86
19.173,-0.28,-1,-4.78
19.196,-2.89,-1.69,-5.5
19.22,-3.27,0.28,-6.19
19.243,-2.53,1.51,-9.87
19.266,-1.87,0.54,-12.6
19.29,-4.52,-0.72,-11.38
19.313,-7.34,-0.33,-11.73
19.336,-1.56,-0.92,-16
19.605,6.01,-4.83,-9.33
19.629,5.52,-3.07,-13.24
19.653,0.15,-0.08,-11.96
19.676,-3.86,-0.36,-9.82
19.699,-3.76,-2.4,-6.75
19.723,-1.35,-0.77,-4.45
19.746,0.54,-0.82,-3.43
19.769,1.02,-0.82,-2.89
19.792,-0.18,-0.56,-4.17
19.816,0.05,1.1,-11.15
19.839,1.1,-0.89,-15.77
19.862,3.17,-3.78,-15.16
19.885,2.91,2.99,-15.49
19.909,2.12,-3.04,-14.75
19.932,2.35,-7.54,-11.35
19.956,0.77,-4.29,-7.49
19.979,-1.79,-5.98,-6.72
20.003,-3.94,-6.14,-10.15
20.026,-2.89,-1.99,-11.38
20.049,3.99,-2.3,-7.21
20.072,4.4,-0.72,-7.41
20.096,1.18,-1.35,-4.78
20.119,-0.95,-1.66,-4.4
20.142,-2.48,-1.18,-5.65
20.41,-2.15,-0.13,-7.44
20.434,-0.92,1.1,-10.58
20.458,-1.74,0.92,-12.17
20.481,-6.01,-2.05,-11.35
20.505,-7.39,0.95,-13.01
20.528,0.46,-2.89,-16.85
20.553,0.74,-7.85,-13.8
20.576,2.94,-5.29,-7.13
20.6,6.11,-4.17,-9.84
20.623,4.52,-4.12,-14.14
20.646,-0.95,-1.48,-12.53
20.669,-3.45,-0.46,-10.15
20.692,-1.28,-1.69,-7.31
20.715,1.02,-1.2,-4.91
20.739,1.18,-0.28,-3.12
20.764,-0.49,-0.82,-1.84
20.787,-2.12,-0.31,-3.86
20.81,-2.56,1.48,-10.15
20.834,0.46,-0.74,-15.7
20.857,3.86,-1.89,-14.55
20.881,3.6,4.52,-15.16
20.904,3.22,-1.81,-14.9
21.208,2.61,-0.23,-10.23
21.234,3.94,-0.92,-7.69
21.258,0.69,-1.48,-5.06
21.281,-1.51,-1.28,-4.42
21.304,-2.63,-1.28,-4.58
21.328,-1.74,-0.33,-6.49
21.351,-0.69,0.89,-10
21.374,-0.51,1,-12.32
21.398,-4.24,-0.97,-11.04
21.421,-8.64,-0.03,-11.43
21.444,-2.51,-0.13,-15.95
21.468,0.56,-5.88,-16.23
21.491,2.07,-6.01,-9.82
21.514,6.08,-3.96,-8.82
21.537,4.98,-4.14,-14.65
21.561,0.1,-0.97,-12.83
21.585,-3.12,-0.54,-9.92
21.608,-2.66,-1.58,-7
21.631,-0.46,-0.74,-4.75
21.657,-0.92,1.79,-3.07
21.682,1.1,-1.28,-2.07
21.706,0.03,-0.59,-4.14
21.729,-1.05,0.77,-10.74
21.753,-0.92,0.56,-16.62
21.776,1.56,-2.17,-15.16
21.8,2.66,1.12,-14.26
21.824,4.04,-0.13,-15.26
22.133,2.76,-6.34,-13.83
22.157,2.53,-5.32,-9.56
22.181,0,-3.43,-6.29
22.207,-3.35,-7.52,-7.29
22.232,-5.75,-4.58,-10.84
22.255,0.69,0.03,-12.7
22.279,4.29,-0.23,-10.2
22.303,-2.38,-1.66,-4.12
22.326,-3.45,-1.07,-4.27
22.349,-1.56,0.33,-8.08
22.372,-0.18,1.46,-12.63
22.396,-2.89,-0.15,-11.96
22.42,-7.72,-1.2,-10.97
22.443,-3.94,1.74,-16.03
22.466,1.64,-5.44,-17.18
22.49,0.56,-7.31,-11.32
22.514,3.83,-4.09,-8.56
22.538,5.52,-4.52,-12.83
22.562,2.43,-0.56,-12.91
22.585,-2.28,-0.26,-10.02
22.609,-3.27,-2.25,-7.49
22.905,-1.61,-1.46,-5.55
22.929,0.31,-1.02,-5.29
22.952,-0.54,-1.18,-3.45
23.231,0.38,-1.58,-2.25
23.254,-0.33,-1.33,-2.3
23.279,-1.1,1.2,-6.77
23.303,-0.33,0.1,-14.03
23.327,2.2,-1.94,-15.75
23.35,2.97,-0.28,-14.88
23.374,3.12,0.69,-14.9
23.397,1.35,-6.88,-11.3
23.421,1.64,-5.52,-10.35
23.445,0.49,-5.62,-5.96
23.468,-2.63,-7.13,-7.82
23.752,-4.58,-3.96,-11.55
23.777,-0.2,-1.64,-10.76
23.802,4.12,-0.74,-8.92
23.826,2.97,-1.12,-6.49
23.852,0.43,-0.72,-4.4
23.876,-1.53,-1.58,-4.91
23.9,-2.97,-1.28,-5.34
23.924,-2.45,0.43,-9.1
23.947,-2.05,1.74,-12.76
23.97,-2.86,0.43,-11.68
23.994,-6.44,-1.41,-11.35
24.018,-7.64,0.31,-13.42
24.041,-0.77,-3.32,-15.57
24.064,1.33,-5.9,-13.5
24.088,3.96,-4.68,-7.75
24.112,6.26,-4.19,-10.51
24.391,2.12,-2.35,-13.11
24.418,-2.17,-0.26,-11.84
24.441,-3.35,-1.02,-9.64
24.465,-1.66,-1.18,-6.65
24.489,-0.36,-0.61,-4.29
24.513,1.05,-0.64,-3.04
24.537,-0.43,-4.58,-4.55
24.56,-3.43,-6.75,-6.7
24.584,-5.98,-3.78,-11.61
24.608,0.2,-0.54,-11.73
24.631,4.47,-0.77,-8.82
24.655,2.81,-1.28,-5.7
24.679,-0.1,-1.25,-4.45
24.977,-2.07,-1.64,-5.19
25.002,-2.86,-0.72,-5.96
25.027,-1.94,0.43,-9.71
25.051,-1.43,1.05,-12.78
25.076,-3.66,0.33,-11.63
25.1,-8.1,-1.94,-10.53
25.124,-4.86,1.69,-14.39
25.147,2.4,-3.55,-17.02
25.171,1.18,-6.57,-12.12
25.194,3.53,-4.27,-7.54
25.218,3.45,-5.27,-12.24
25.243,1.12,-2.12,-14.34
25.267,-1.43,0.77,-11.4
25.291,-2.56,-0.61,-8.46
25.315,-1.33,-1.28,-5.09
25.338,-0.28,-1.28,-3.25
25.362,0.36,-2.33,-2.12
25.386,-0.08,-0.56,-3.37
25.41,-0.46,0.74,-8.15
25.433,-0.43,0.1,-14.7
25.744,1.38,-2.56,-14.98
25.764,1.64,0.43,-14.6
25.779,2.76,0.51,-15.24
25.794,2.1,-6.54,-13.34
25.808,2.1,-5.42,-10.61
25.823,0.1,-4.93,-5.62
25.838,-3.76,-6.75,-7.67
25.852,-4.91,-3.35,-11.96
25.867,0.97,-0.54,-3.5
25.882,-1.71,-2.43,-3.99
25.897,-2.51,-2.79,-5.37
25.911,-1.41,0.61,-9.33
25.926,-1.66,2.58,-12.47
25.94,-3.37,-0.05,-10.61
25.955,-5.52,-1.05,-10.48
25.969,-8.77,-0.18,-11.25
25.984,-3.17,0.77,-14.39
25.998,2.1,-7.18,-14.78
26.013,3.14,-6.72,-10.84
26.027,6.24,-4.19,-12.24
26.258,3.53,-5.29,-17.02
26.283,0.28,-1.41,-5.67
26.307,1.2,-0.1,-4.27
26.331,0.2,-0.97,-1.92
26.356,-2.3,-1.61,-2.02
26.38,-3.58,0.15,-8.95
26.403,1.18,0.18,-18.2
26.427,3.5,-1.3,-14.52
26.451,2.07,2.02,-14.78
26.475,4.42,-6.08,-14.44
26.499,3.58,-7.95,-12.83
26.523,0.49,-4.12,-6.65
26.547,-1.87,-8,-7.23
26.571,-4.52,-4.63,-12.04
26.596,-0.77,-1.61,-11.68
26.62,5.01,-0.51,-8.95
26.644,3.43,-1.18,-7.26
26.954,0.66,-0.84,-4.5
26.979,-1.12,-1.46,-2.79
27.003,-2.3,-2.02,-3.12
27.027,-0.84,-1.28,-6.83
27.051,-1.28,1.89,-11.38
27.075,-2.94,2.05,-13.52
27.099,-5.27,2.43,-17.2
27.123,5.09,-3.35,-8.97
27.147,6.14,-5.14,-14.7
27.171,1.97,-1.69,-14.06
27.195,-2.4,0.1,-11.38
27.219,-3.32,-1.89,-6.75
27.242,-2.17,-0.77,-4.47
27.266,-0.33,0.13,-3.43
27.29,0.23,-0.74,-2.4
27.315,-0.08,-0.82,-3.81
27.339,-1.25,1.15,-10.23
27.364,-1.02,0.46,-15.47
27.388,1.69,-1.74,-16.08
27.683,2.28,0.64,-15.18
27.707,2.71,1.02,-14.39
27.736,2.25,-4.24,-12.96
27.77,2.2,-6.83,-9.97
27.794,0.97,-4.88,-6.42
27.818,-2.99,-6.88,-8.05
27.842,-4.55,-2.1,-11.22
27.865,1.69,-0.89,-10.07
27.888,4.42,-0.95,-8.59
27.912,2.63,-1.51,-5.75
27.936,0.64,-1.3,-4.35
27.959,-1.94,-1.89,-4.86
27.982,-2.86,-0.49,-6.29
28.006,-1.89,1.2,-9.92
28.032,-2.28,0.87,-12.68
28.055,-4.4,-0.28,-10.94
28.079,-8.08,-0.59,-10.46
28.102,-5.04,0,-14.16
28.126,1.61,-4.78,-17.61
28.15,2.22,-6.85,-12.86
28.174,5.62,-4.65,-8.54
28.478,7.08,-5.06,-12.35
28.502,1.84,-1.3,-12.58
28.527,-3.02,0.18,-11.4
28.813,-3.89,-2.43,-8.18
29.099,3.55,-0.1,-10.61
31.049,0.38,-1.99,-10.89
31.097,2.58,0.43,-11.17
31.399,5.09,-0.77,-8.31
31.423,1.53,-0.77,-4.47
31.447,-1.2,-1.28,-3.89
31.471,-1.41,1.53,-11.38
31.751,-2.15,1.05,-12.68
31.775,-5.67,-1.89,-11.09
31.799,1.12,-6.8,-10.97
31.823,5.47,-3.58,-9.97
31.847,3.53,-3.07,-15.62
31.871,-1.02,-0.43,-13.96
31.895,-2.91,-0.61,-9.94
31.918,-1.94,-0.82,-6.52
31.942,-0.23,-0.61,-4.24
31.965,0.51,-0.95,-2.86
31.989,0.31,-1.48,-2.15
32.014,-0.46,0.74,-5.85
32.038,-0.69,2.1,-11.76
32.309,0.05,0.51,-15.64
32.333,1.43,-1.97,-14.6
32.357,1.53,1.05,-14.8
32.382,1.92,1.56,-14.11
32.407,2.58,-5.37,-12.78
32.431,2.94,-6.67,-10.53
32.454,0.84,-4.86,-6.95
32.478,-2.66,-7.23,-9.05
32.502,-4.47,-2.84,-12.22
32.526,-0.33,-0.38,-9.97
32.55,4.22,-1.15,-8.84
32.574,3.04,-1.3,-6.26
32.598,1.46,-0.87,-3.83
32.623,-1.53,-1.58,-3.53
32.647,-3.27,-1.79,-4.81
32.671,-3.43,0.49,-9.13
32.695,-1.97,2.05,-12.4
32.719,-2.61,0.87,-12.4
32.743,-5.78,-1.99,-10.2
33.006,-8.28,1.02,-14.47
33.033,0.51,-1.94,-16.31
33.062,1.56,-7.29,-13.68
33.087,3.73,-6.47,-9.48
33.111,6.52,-5.24,-12.19
33.135,4.19,-3.07,-14.98
33.159,-1.18,0.15,-12.5
33.182,-3.6,-1.51,-9.41
33.206,-2.33,-2.07,-6.26
33.23,0.05,-0.23,-4.42
33.254,0.79,-0.77,-3.12
33.278,0.43,-1.61,-2.2
33.301,-1.56,0.64,-5.98
33.326,-1.51,0.43,-12.42
33.35,1.23,-1.53,-16.13
33.375,4.09,-2.22,-15.44
33.399,3.96,2.53,-15.72
33.424,3.89,-5.6,-13.24
33.449,3.27,-7.82,-10.66
33.473,2.25,-4.63,-7.18
33.497,-0.59,-5.47,-6.39
33.521,-4.52,-7.87,-9.2
33.545,-4.17,-1.99,-11.3
33.849,0.97,-0.84,-10.81
33.874,4.81,-0.72,-9.02
33.899,1.92,-1.2,-5.34
33.923,-0.1,-1.1,-3.89
33.947,-1.66,-1.25,-3.14
33.972,-3.4,-0.79,-4.91
33.996,-3.32,1.05,-10.76
34.02,-0.15,-3.09,-17.48
34.044,2.86,-8.46,-14.49
34.068,4.78,-4.32,-8.87
34.092,7.18,-3.45,-11.2
34.116,3.81,-4.42,-13.45
34.141,-1.89,0.05,-12.22
34.165,-3.73,0.28,-10.76
34.189,-2.22,-1.81,-6.98
34.213,-0.59,-1.2,-4.12
34.237,0.87,-0.89,-2.53
34.261,1,-1.2,-1.46
34.286,-0.1,-1.05,-3.17
34.31,-0.69,1.81,-10.94
34.334,0.46,-1.12,-18.64
34.358,2.4,-1.97,-15.87
34.382,2.53,2.3,-14.88
34.406,3.6,-3.76,-14.09
34.43,2.81,-6.95,-11.48
34.454,1.99,-4.14,-6.98
34.742,-0.72,-5.83,-5.55
34.761,-5.27,-7.16,-9.82
34.776,-3.99,-2.17,-12.96
34.791,2.56,-0.72,-11.07
34.807,5.32,-0.69,-7.39
34.823,3.25,-0.95,-4.24
34.838,0.46,-2.1,-3.45
34.853,-1.43,-1.64,-4.14
34.868,-2.84,-0.97,-7.06
34.883,-3.04,0.84,-11.35
34.898,-2.43,0.69,-13.27
34.913,-4.75,0.08,-11.12
34.928,2.53,-6.7,-13.65
34.943,2.48,-5.42,-7.85
34.958,4.75,-5.93,-10.38
34.972,4.37,-4.52,-13.65
34.987,0.59,-0.59,-12.88
35.002,-2.71,0.13,-10.15
35.017,-2.68,-1.79,-6.83
35.032,-1,-1.56,-4.45
35.047,0.05,-0.77,-3.02
35.062,0.26,-1.76,-2.25
35.076,-0.33,-0.31,-3.94
35.091,-0.28,-0.41,-10.07
35.106,0.66,-2.48,-17.13
35.121,2.81,-2.94,-16.08
35.136,5.24,1,-15.77
35.151,5.6,-7.52,-13.22
35.392,3.45,-6.77,-10.76
35.418,0.05,-4.58,-6.47
35.443,-2.74,-7.64,-5.6
35.468,-5.32,-6.62,-9.84
35.493,-1.92,-2.58,-11.66
35.517,3.78,-1,-10.53
35.541,5.11,-1.33,-6.11
35.565,1.61,-0.84,-4.06
35.59,-1,-2.66,-4.52
35.614,-2.56,-1.69,-5.06
35.638,-4.58,-1.71,-12.19
35.663,-8.08,-0.15,-12.09
35.688,-1.89,-1.66,-16.31
35.712,2.22,-5.65,-14.67
35.737,1.81,-5.32,-8.54
35.761,4.73,-5.01,-8.49
35.786,5.06,-4.6,-12.83
35.81,0.89,-0.84,-12.96
36.109,-2.94,0,-10.86
36.134,-2.91,-1.81,-7.16
36.158,-1.43,-1.58,-4.47
36.182,0.77,0.23,-16.67
36.207,0.92,-2.48,-14.14
36.231,1.69,1.18,-13.88
36.256,4.86,-1.89,-15.82
36.28,3.99,-8.59,-13.65
36.305,1.56,-4.68,-8
36.33,-1.69,-6.03,-5.14
36.354,-5.14,-7.18,-9.2
36.379,-3.96,-2.28,-12.53
36.404,2.48,-0.92,-11.35
36.428,5.42,-0.61,-7.62
36.453,1.33,-0.69,-4.27
36.477,-0.87,-1.35,-3.35
36.501,-2.63,-2.05,-4.01
36.526,-2.97,-0.74,-6.29
36.551,-2.1,0.51,-11.32
36.575,-1.35,1.02,-13.22
36.896,-4.27,-0.49,-11.12
36.922,-8.56,0.79,-12.47
37.196,-0.51,-2.61,-16.36
37.221,1.46,-6.7,-13.93
37.245,-8.77,0,-12.14
37.269,-2.05,-0.56,-15.85
37.293,3.68,-5.55,-15.26
37.31,1.48,-6.31,-9.48
37.323,4.09,-5.04,-8.59
37.46,4.88,-4.83,-14.62
37.469,0.77,-1.48,-14.49
37.478,-2.76,0.13,-10.92
37.486,-2.84,-2.05,-6.77
37.495,-1,-0.87,-4.5
37.503,0.51,-0.66,-3.63
37.512,0.92,-1.53,-1.92
37.521,-0.59,-0.41,-3.43
37.66,-1.51,0.18,-9.48
37.67,0.28,-0.33,-16.44
37.678,3.12,-2.63,-15.57
37.687,2.89,3.14,-14.65
37.696,3.45,-1.79,-13.88
37.704,2.81,-7.39,-11.81
37.713,2.07,-5.39,-9.2
37.863,-0.2,-5.06,-6.39
37.871,-4.14,-7.59,-8.79
37.88,-5.65,-3.17,-11.73
37.888,0.33,-0.66,-10.97
37.896,4.78,-0.77,-9.36
37.904,3.86,-0.89,-5.57
37.913,0.92,-0.92,-4.24
38.05,-1.94,-1.89,-4.06
38.059,-4.06,-1.12,-4.58
38.067,-3.83,0.31,-9.82
38.075,-1.79,1.02,-13.42
38.21,-3.68,0.54,-12.24
38.218,-9.25,-0.36,-11.17
38.227,1.56,-6.16,-9.28
38.236,4.91,-4.04,-9.41
38.245,4.29,-4.27,-13.91
38.383,0.56,-0.84,-13.55
38.392,-2.81,0.64,-10.51
38.401,-3.27,-1.38,-6.65
38.41,-1.87,-1.3,-4.32
38.419,-0.43,-1.23,-3.25
38.428,0.51,-1.05,-2.15
38.437,0.2,-0.54,-3.48
38.574,-0.15,0.95,-10.3
38.584,-0.18,-1.46,-16.31
38.592,1.66,-2.12,-16.69
38.601,2.4,2.61,-15.08
38.61,4.12,-3.3,-14.93
38.619,2.48,-7.29,-12.96
38.749,1.81,-4.27,-7.34
38.757,-1.25,-5.47,-5.27
38.765,-4.32,-6.77,-9.56
38.774,-3.81,-2.22,-12.65
38.915,2.99,-0.15,-12.32
38.924,4.91,-0.74,-7.41
38.932,2.43,-0.51,-4.04
38.941,-3.76,-0.69,-6.8
38.95,-3.12,0.23,-10.35
38.959,-2.28,0.36,-13.32
39.099,-4.96,-0.54,-12.4
39.109,-9,-0.26,-12.5
39.118,-1.94,0.28,-16.56
39.127,3.71,-5.44,-14.95
39.136,0.49,-6.39,-9.28
39.144,2.94,-5.32,-7.9
39.284,5.5,-5.67,-13.6
39.299,2.68,-0.66,-15.01
39.308,-2.28,0.72,-10.86
39.317,-3.63,-2.17,-6.83
39.325,-2.17,-1.12,-4.65
39.334,-0.05,-1.05,-3.81
39.47,0.82,-2.91,-3.43
39.478,0.08,-0.84,-2.33
39.486,2.4,-3.45,-16.1
39.494,2.61,2.2,-15.18
39.636,3.81,-4.01,-15.52
39.645,2.74,-7.13,-12.22
39.654,0.66,-3.81,-6.88
39.663,-1.2,-6.24,-5.14
39.672,-4.37,-7.13,-8.79
39.681,-2.15,-1.99,-13.11
39.815,2.71,-1.15,-10.23
39.823,4.88,-1.12,-7.21
39.832,1.2,-0.61,-4.35
39.84,-1.69,-1.33,-4.55
39.848,-3.07,-0.66,-4.98
39.857,-2.84,-0.49,-6.03
40.005,-1.56,-0.1,-10.17
40.014,-1.35,0.82,-12.96
40.022,-4.5,-1.48,-12.22
40.03,-9,0.56,-13.47
40.039,-1.99,-0.23,-16.26
40.047,1.33,-5.21,-15.11
40.186,-0.28,-6.44,-9.69
40.194,3.2,-4.68,-7.46
40.204,7.26,-5.52,-12.68
40.212,4.5,-0.92,-13.8
40.221,-1.94,0.2,-11.07
40.23,-4.14,-1.69,-8.05
40.372,-2.1,-1.81,-5.55
40.381,-0.84,-0.69,-4.55
40.39,1.07,-1.18,-3.58
40.399,1.33,-0.97,-2.84
40.407,-0.03,0.31,-6.7
40.416,-0.15,0.18,-14.39
40.425,1.53,-2.99,-16.36
40.563,2.02,0.2,-14.67
40.573,2.81,1.23,-14.78
40.581,2.51,-5.57,-13.14
40.59,2.61,-6.03,-10.25
40.599,0.97,-4.7,-6.14
40.742,-2.05,-7.29,-7.41
40.75,-4.91,-4.63,-10.99
40.758,-0.1,-1.12,-11.66
40.895,3.83,-0.43,-9.84
40.905,3.99,-1.3,-6.65
40.913,1.05,-1.25,-4.17
40.922,-1.38,-1.48,-4.04
40.931,-3.27,-1.1,-4.12
40.94,-7.34,0.95,-14.32
41.082,0.92,-2.76,-15.98
41.091,1.89,-6.54,-11.15
41.099,1.28,-5.9,-7.18
41.107,4.17,-5.75,-10.3
41.116,5.01,-3.76,-14.49
41.254,0.51,-0.59,-12.88
41.262,-2.66,-0.51,-9.66
41.271,-2.71,-1.87,-6.75
41.279,-1.02,-0.64,-4.7
41.288,0.41,-1.48,-3.6
41.297,0.77,-1.48,-2.63
41.305,-0.28,-0.87,-4.78
41.443,-0.49,1.12,-11.96
41.452,1.38,-0.61,-16.9
41.46,3.14,-3.22,-14.24
41.469,2.35,2.38,-14.67
41.477,3.53,-3.3,-13.88
41.486,2.35,-7.75,-11.84
41.622,2.86,-5.14,-7.46
41.63,0.08,-6.11,-5.85
41.638,-4.52,-7.77,-8.97
41.646,-4.65,-3.43,-12.12
41.655,1.46,-2.45,-6.49
41.8,5.06,-1.12,-8.69
41.813,3.71,-1.12,-5.78
41.822,0.56,-1.15,-3.89
41.83,-2.3,-2.2,-3.91
41.839,-3.17,-1,-6.01
41.848,-2.3,-0.1,-9.82
41.985,-1.38,0.74,-12.99
41.994,-3.96,-0.61,-11.81
42.003,-8.72,-1.23,-11.5
42.011,-3.35,-0.36,-15.8
42.25,2.71,-4.45,-15.57
42.732,1.18,-6.72,-9.94
42.888,"
-4.50",-7.11,-9.13
42.896,-2.89,0.2,-12.58
42.904,-6.49,-1.46,-11.63
42.913,-6.31,2.38,-14.21
42.921,0.33,-3.43,-17.1
43.063,0.72,-6.6,-14.09
43.072,4.01,-4.96,-7.75
43.08,6.85,-4.55,-10.63
43.088,4.06,-1.99,-14.42
43.097,-1.48,0.82,-12.07
43.106,-3.99,-0.97,-8.38
43.242,-2.43,-1.94,-5.73
43.251,-1.48,-0.51,-4.22
43.259,0.36,-0.79,-2.86
43.394,0.89,-1.76,-18.02
43.403,2.12,1.02,-14.85
43.412,2.25,1.25,-14.49
43.42,2.48,-6.42,-12.53
43.429,2.61,-6.06,-9.79
43.565,0.31,-4.4,-5.85
43.574,-3.71,-8.18,-8.38
43.583,-5.11,-2.99,-12.37
43.592,0.64,-0.87,-12.32
43.6,5.42,-0.54,-8.97
43.609,4.32,-1.25,-5.5
43.747,1.35,-1.38,-3.12
43.756,-0.84,-1.66,-3.45
43.764,-2.79,-1.35,-3.76
43.773,-2.91,-0.03,-9.02
43.782,-3.35,1.66,-13.11
43.791,-4.81,0.77,-12.17
43.933,-8.28,-1.15,-10.86
43.941,-5.37,1.07,-15.36
43.949,1.97,-5.93,-17.54
43.957,2.07,-7.26,-11.35
43.967,5.21,-4.42,-8.49
43.977,5.78,-5.29,-13.01
44.119,1.53,-2.02,-14.06
44.128,-2.97,0.69,-11.3
44.137,-3.89,-1.71,-8.23
44.146,-1.48,-1.43,-5.39
44.154,0.13,-0.43,-3.99
44.163,0.46,-0.84,-2.61
44.172,-0.54,-1.12,-3.02
44.313,-1.15,0.61,-8.92
44.322,0.28,-0.15,-16.16
44.331,2.99,-2.97,-14.39
44.475,3.25,2.07,-14.55
44.485,2.71,-1.2,-14.26
44.493,2.45,-9.28,-11.89
44.502,3.25,-7.29,-9.33
44.511,-0.92,-4.83,-6.65
44.65,-4.01,-7.36,-8.15
44.66,-5.09,-4.75,-11.25
44.668,1.35,-1.81,-10.94
44.677,-1.92,-0.1,-10.15
44.82,-1.35,0.79,-13.39
44.829,-3.22,-0.03,-12.09
44.838,-8.31,-1.64,-10.38
44.847,-4.93,-0.13,-15.06
44.856,0.69,-5.01,-16.26
44.865,0.79,-6.8,-10.86
45.007,4.42,-4.45,-8.18
45.017,5.75,-5.44,-14.11
45.026,1,-1.61,-13.96
45.035,-2.89,0.08,-11.25
45.044,-3.48,-2.02,-7.62
45.053,-1.48,-1.61,-4.58
45.187,-0.13,-0.49,-3.86
45.196,1.41,-0.69,-2.28
45.205,0.59,-0.38,-3.68
45.213,-0.79,0.08,-8.95
45.222,-1.3,0.51,-16.87
45.231,0.69,-2.45,-15.31
45.371,2.12,-0.43,-13.78
45.38,2.97,1.97,-14.7
45.388,3.55,-5.6,-15.75
45.397,3.3,-6.39,-11.09
45.406,0.95,-4.32,-6.85
45.415,-3.5,-8.08,-7.57
45.424,-6.26,-4.93,-11.4
45.562,0.61,-0.33,-13.57
45.57,4.29,-0.46,-9.33
45.579,4.63,-1.15,-5.88
45.588,0.89,-1.23,-3.45
45.598,-1.51,-2.4,-3.73
45.607,-4.01,-1.25,-4.14
45.754,-3.09,-0.87,-10.53
45.762,-1.99,1.2,-13.7
45.77,-3.45,0.72,-12.68
45.779,-7.82,-1.79,-10.51
45.919,-5.6,0.13,-14.6
45.928,4.98,-5.73,-13.04
45.936,2.86,-1.81,-15.67
45.945,-1.35,0.13,-12.22
45.955,-3.2,-1.33,-7.18
46.103,-2.35,-1.15,-4.63
46.112,-0.59,-1.38,-3.73
46.12,1.25,-1.89,-2.89
46.129,1.02,-0.59,-2.74
46.139,0.49,0.36,-6.75
46.282,-0.77,-0.2,-15.24
46.291,0.49,-2.35,-16.23
46.299,1.81,-1.64,-14.72
46.308,2.22,2.76,-15.16
46.452,2.86,-3.99,-13.68
46.461,-2.15,-1.53,-11.35
46.469,3.02,-0.87,-9.38
46.478,4.45,-0.66,-6.7
46.487,2.58,-0.61,-4.19
46.626,-0.15,-1.84,-3.37
46.636,-2.35,-2.02,-4.12
46.644,-3.17,0,-8.49
46.653,-2.63,2.02,-12.96
46.662,-2.66,0.03,-12.91
46.672,-4.68,-0.15,-11.35
46.807,-8.56,-1.1,-11.4
46.816,-3.07,-0.46,-15.82
46.825,1.92,-3.76,-15.11
46.834,1.56,-7.11,-9.1
46.843,4.22,-4.81,-8.23
46.852,5.9,-4.6,-13.98
46.997,1.61,-0.74,-14.78
47.006,-2.33,-0.38,-10.79
47.014,-3.45,-2.3,-6.65
47.024,-1.94,-1.28,-4.68
47.033,-1.25,-0.38,-2.81
47.042,0.79,-1.12,-2.81
47.185,0.72,-1.28,-3.58
47.193,1.18,-3.22,-14.62
47.202,2.38,1.23,-15.49
47.211,4.09,-1.43,-14.78
47.221,1.94,-5.9,-10.99
47.362,2.79,-5.93,-7.9
47.371,1,-5.04,-5.88
47.38,-3.99,-6.65,-9.46
47.389,-4.58,-3.73,-12.24
47.398,-0.23,-1.87,-10.33
47.407,3.17,-0.33,-9.02
47.545,3.99,-1.1,-5.98
47.554,1.56,-0.56,-3.96
47.562,-1.61,-2.22,-4.29
47.572,-4.22,-1.97,-5.16
47.582,-3.45,1,-9.53
47.591,-2.05,1.12,-13.14
47.728,-2.97,0.36,-11.81
47.737,-6.88,-1.07,-11.58
47.746,-5.62,1.28,-14.26
47.755,2.1,-3.09,-16.46
47.764,1.66,-7.23,-12.17
47.773,3.27,-5.73,-7.54
47.921,6.52,-5.06,-11.58
48.094,4.17,-1.2,-15.31
48.583,-1.2,0.46,-12.24
48.771,-3.43,-1.33,-8.23
48.784,-1.94,-0.05,-12.73
48.939,-3.32,-1.74,-7.46
48.948,-1.87,-1.71,-4.91
48.957,-0.18,-1.07,-4.19
48.966,0.61,-1.38,-2.51
48.976,0.79,-1.94,-2.05
49.116,-0.15,-0.43,-5.16
49.126,-0.46,-0.18,-13.11
49.135,1.79,-1.94,-16.59
49.144,2.66,-2.1,-14.75
49.153,2.79,1.76,-15.26
49.162,3.27,-4.98,-13.7
49.171,1.99,-6.6,-10.2
49.315,1.53,-4.83,-6.37
49.323,-1.07,-6.29,-6.37
49.332,-4.04,-5.98,-10.89
49.341,-2.58,-2.86,-11.89
49.35,3.3,-1.15,-9.56
49.36,4.42,-1.2,-7.13
49.507,1.99,-1.05,-4.52
49.515,-0.49,-2.25,-4.22
49.524,-1.99,-1.89,-5.47
49.533,-2.84,0,-7.9
49.542,-3.55,1.43,-11.91
49.678,-3.78,-0.66,-11.86
49.687,-5.67,-1.35,-10.97
49.695,-7.21,0.77,-13.01
49.704,0.69,-2.99,-16.79
49.713,3.94,-5.55,-9.28
49.863,5.37,-5.27,-13.32
49.872,1.51,-0.36,-13.04
49.881,-2.25,-0.13,-10.56
49.889,-3.2,-2.15,-6.47
49.899,-1.61,-1.41,-4.7
50.037,-0.13,-0.92,-3.86
50.046,0.77,-0.87,-2.48
50.055,0.15,-1.56,-2.68
50.065,2.68,-0.69,-14.34
50.213,2.58,2.43,-14.6
50.224,2.81,-4.98,-12.5
50.233,2.45,-7.21,-11.15
50.243,1.25,-4.96,-7.77
50.252,-1.99,-6.9,-7.36
50.262,-5.34,-6.11,-9.66
50.436,-2.1,-0.79,-11.84
50.445,2.45,-0.31,-10.81
50.453,4.37,-1.35,-6.9
50.462,1.1,-1.07,-4.4
50.471,-1.07,-2.22,-4.55
50.481,-3.02,1.76,-12.35
50.621,-4.14,0.82,-11.91
50.63,-6.11,-0.26,-11.86
50.639,-7.59,-0.87,-13.06
50.648,-0.31,-3.71,-17.79
50.657,1.92,-6.39,-13.75
50.666,3.53,-5.8,-8.05
50.812,6.16,-5.8,-10.53
50.821,3.5,-2.2,-12.7
50.83,-1.92,0.36,-11.68
50.839,-4.04,-1.48,-9.25
50.848,-2.79,-1.94,-6.16
50.987,-0.82,-0.66,-4.29
50.996,1.35,-0.84,-3.55
51.004,1.43,-1.07,-3.91
51.014,0.69,-2.1,-14.83
51.024,1.3,-1.92,-13.96
51.166,1.1,1.94,-15.03
51.175,2.38,-3.2,-13.24
51.184,2.17,-6.14,-11.4
51.193,2.76,-5.44,-7.54
51.202,0.69,-5.65,-6.21
51.212,-3.81,-6.34,-9.64
51.352,-3.96,-3.4,-11.15
51.361,1.38,-1.38,-10.07
51.37,4.86,-0.97,-7.87
51.379,3.04,-0.95,-5.01
51.388,-0.1,-1.74,-4.32
51.398,-2.84,-2.3,-4.88
51.536,-3.4,-0.61,-6.9
51.545,-2.12,0.41,-10.69
51.554,-1.2,-0.49,-12.58
51.562,-2.53,-0.36,-12.27
51.572,-6.54,-1.18,-11.32
51.581,-6.03,0.77,-13.93
51.723,1.53,-3.76,-14.85
51.732,0.41,-6.52,-12.4
51.741,1.53,-5.85,-8.33
51.75,5.47,-6.83,-11.09
51.759,4.88,-3.71,-14.85
51.897,-0.18,0.59,-12.96
51.906,-2.58,-1.15,-8.56
51.915,-3.07,-2.51,-5.52
51.924,-1,-1.74,-3.81
51.934,0.77,-0.79,-5.27
52.088,0.26,-0.77,-13.04
52.097,1.76,-2.35,-16.51
52.106,1.74,-2.74,-14.85
52.115,2.15,0.41,-15.18
52.125,4.17,-5.21,-13.19
52.267,3.32,-6.65,-9.76
52.276,2.76,-4.7,-6.57
52.285,0.72,-7.39,-6.31
52.294,2.02,-2.15,-10.33
52.304,5.11,-1.51,-7.85
52.313,2.68,-0.84,-4.6
52.452,-0.23,-1.58,-4.52
52.463,-2.86,-2.1,-3.99
52.473,-2.63,-1.76,-5.11
52.482,-1.76,-0.89,-9.82
52.491,-1.69,0.61,-13.45
52.501,-3.5,-0.28,-11.94
52.652,-7.59,-1.69,-11.71
52.661,-5.88,-0.66,-15.06
52.67,1.53,-5.19,-15.87
52.679,1.23,-7.69,-11.71
52.688,3.17,-5.47,-7.98
52.698,5.88,-6.88,-11.32
52.707,4.98,-2.76,-12.99
52.848,0.05,0.41,-11.61
52.857,-2.76,-1.94,-8.23
52.866,-2.84,-2.66,-5.04
52.876,-0.92,-1.41,-4.29
52.886,0.87,-1.3,-3.25
52.895,2.1,-1.33,-3.22
53.046,1.2,-0.69,-6.37
53.056,0.23,-0.43,-11.17
53.065,0.26,-1.84,-15.57
53.074,1.02,-2.97,-14.34
53.083,2.07,0.2,-15.34
53.093,5.6,-4.93,-14.39
53.103,3.27,-7.54,-11.45
53.245,2.4,-4.86,-7
53.254,0.28,-5.78,-5.09
53.263,-2.71,-7.31,-7.49
53.272,-4.78,-4.47,-11.12
53.282,0.74,-2.81,-11.17
53.292,4.55,-0.82,-8.74
53.439,3.14,-1.1,-5.5
53.448,0.36,-1.28,-4.01
53.457,-2.56,-2.05,-4.55
53.466,-3.12,-0.89,-5.5
53.476,-2.66,0.31,-9.59
53.614,-2.38,-0.05,-13.06
53.624,-4.42,-0.38,-15.9
53.633,1.92,-5.39,-15.26
53.642,2.53,-6.39,-10.38
53.652,4.5,-5.24,-7.29
53.946,5.19,-6.72,-10.99
53.959,2.05,-2.05,-13.09
54.439,-2.38,1.15,-12.32
54.602,-2.43,2.05,-16.26
54.612,2.25,-4.91,-15.57
54.62,0.64,-6.06,-11.89
54.629,2.35,-4.75,-6.37
54.772,5.6,-5.04,-9.13
54.781,3.53,-1.69,-13.6
54.791,-1.64,0.23,-12.17
54.8,-3.43,-1.28,-8.64
54.809,1.38,-0.77,-4.06
54.952,0.87,-0.66,-3.94
54.961,-0.36,-0.31,-6.57
54.97,-0.61,-0.92,-11.89
54.979,0.87,-1.3,-15.57
54.988,3.25,-2.74,-14.62
55.142,3.55,1.66,-15.26
55.152,3.25,-5.32,-13.88
55.161,3.32,-7.52,-11.5
55.171,1.15,-3.35,-6.95
55.18,-1.48,-5.57,-4.6
55.189,-4.68,-6.77,-7.92
55.199,-3.02,-2.86,-11.78
55.344,3.14,-0.61,-10.58
55.354,4.83,-0.56,-7.69
55.364,1.43,-0.82,-4.12
55.373,-1.28,-2.28,-4.88
55.383,-2.63,-1.66,-6.7
55.392,-2.07,0.03,-7.64
55.401,-1.23,0.28,-10.48
55.545,-2.07,-0.15,-12.45
55.554,-3.43,-1.02,-11.5
55.563,-7.11,-1.51,-11.81
55.573,-4.09,0.84,-15.54
55.721,1.58,-4.63,-17.38
55.73,-1.99,0.26,-11.22
55.739,-3.66,-1.2,-9.3
55.748,-1.94,-1.71,-6.31
55.895,-0.79,-1,-4.12
55.904,-0.1,-0.49,-2.58
55.913,0.64,-1.07,-3.22
55.922,-0.03,-0.18,-6.57
55.932,-0.82,-0.36,-13.78
56.083,0.87,-2.28,-14.37
56.093,3.32,-0.72,-13.98
56.102,2.4,2.35,-16.39
56.111,-2.48,-6.72,-8.38
56.255,-4.58,-4.12,-12.35
56.264,0.43,-2.76,-11.63
56.273,5.01,-1.12,-9.05
56.283,3.94,-1.69,-5.6
56.292,0.59,-1.84,-3.71
56.302,-1.61,-1.35,-4.4
56.45,-3.02,-1.38,-5.75
56.46,-2.07,-0.79,-7.95
56.469,-1,1,-11.91
56.478,-2.15,0.26,-12.65
56.487,-7,-1.02,-10.48
56.497,-8,2.2,-14.47
56.506,0.84,-0.56,-15.87
56.65,1.3,-6.01,-13.88
56.66,1.51,-4.81,-7.8
56.669,4.63,-4.45,-9.28
56.678,3.22,-5.06,-16.13
56.688,0.56,0.66,-14.88
56.698,-1.69,0.26,-9.36
56.84,-2.02,-1.41,-5.78
56.849,-1.25,-1.25,-4.09
56.858,0.13,-1.33,-2.33
56.868,0.74,-1.48,-2.07
56.877,-0.15,-1.2,-3.58
56.888,-0.95,1.07,-8
56.897,-1,0.74,-14.34
57.039,2.17,-0.92,-16.03
57.049,3.09,-0.15,-15.21
57.058,1.61,2.81,-14.75
57.067,1.66,-3.78,-13.8
57.077,3.04,-7.98,-11.84
57.087,2.28,-5.34,-7.21
57.096,-1.1,-5.5,-5.93
57.242,-4.06,-6.03,-10.51
57.251,-3.09,-1.69,-11.5
57.26,2.81,-0.36,-10.86
57.27,4.47,-0.61,-7.82
57.28,1.41,-0.95,-3.96
57.436,-1.74,-1.81,-3.63
57.446,-3.81,-1.94,-4.17
57.455,-2.86,0.18,-7.95
57.464,-1.84,1.71,-12.17
57.609,-2.28,-0.13,-12.3
57.618,6.08,-5.39,-13.96
57.627,1.25,-1.07,-12.4
57.637,-2.66,0.03,-10.63
57.782,-3.25,-2.35,-7.57
57.792,-1.2,-2.22,-5.32
57.801,0.26,-0.66,-4.19
57.811,1.15,-0.31,-3.12
57.822,0.49,-1.05,-2.66
57.832,-0.56,-0.26,-6.54
57.982,-0.79,0.56,-14.55
57.991,1.99,-2.12,-15.21
58,2.91,-1.07,-14.37
58.01,3.37,0.66,-16.36
58.02,2.99,-6.16,-14.62
58.03,3.43,-7.29,-9.97
58.177,0.18,-4.58,-5.32
58.186,-1.89,-8.21,-6.08
58.195,-3.94,-5.01,-10.81
58.205,-1.3,-2.45,-12.01
58.215,4.58,-0.41,-12.22
58.225,4.22,-1.15,-7.18
58.235,0.89,-0.82,-4.55
58.38,-1.74,-1.18,-4.14
58.39,-3.76,-1.61,-4.75
58.399,-2.97,-0.38,-7.08
58.408,-1.79,1.87,-10.84
58.419,-2.12,0.66,-11.99
58.428,-3.99,-1.18,-10.99
58.438,-8.26,-1.74,-11.61
58.587,-4.5,0.36,-15.77
58.596,2.02,-3.68,-16
58.605,1.79,-7,-11.71
58.615,3.94,-5.09,-8.05
58.77,-3.32,-2.17,-7.34
58.78,-2.4,-1.18,-4.63
58.789,-0.03,0,-3.48
58.799,1.02,-1.1,-2.43
58.808,0.15,-1.58,-2.25
58.818,-0.38,0.72,-8.33
58.978,0.66,0.36,-15.26
58.992,0.72,-1.38,-13.7
59.003,1.66,-1.46,-13.39
59.013,1.92,2.05,-15.9
59.022,4.19,-6.37,-14.78
59.032,2.94,-7.44,-12.42
59.041,2.48,-4.91,-7.16
59.192,-1.05,-5.65,-4.88
59.202,-3.09,-8.13,-8.77
59.211,-4.58,-4.04,-12.22
59.22,2.1,-1.12,-11.55
59.366,-1.02,-2.02,-3.81
59.375,-1.69,-2.79,-3.96
59.385,-1,-1.05,-5.83
59.394,-4.19,0.92,-11.09
59.403,-7.41,-1.94,-9.84
59.546,-8.15,0.72,-13.5
59.555,-0.49,-2.66,-16.05
59.564,2.05,-7.82,-13.52
59.794,2.76,-5.98,-8.79
60.283,5.62,-6.14,-12.17
60.319,-3.63,-1.87,-8.61
60.496,2.86,-1.99,-10.69
60.505,-1.94,-0.23,-9.43
60.514,-5.06,-0.56,-8.67
60.523,-7.69,1.33,-12.58
60.532,-1.56,-1.76,-16.08
60.541,1.2,-7,-16.56
60.551,3.43,-7.16,-11.76
60.694,6.31,-5.65,-14.06
60.702,5.24,-3.63,-13.75
60.712,-0.97,-0.36,-11.66
60.721,-5.88,-3.66,-9.05
60.731,-1.53,-2.2,-7.82
60.877,0.38,-0.95,-7.31
60.887,1.15,-1,-5.32
60.897,0.64,-1.3,-4.35
60.906,-0.84,-1.33,-9.89
61.045,0.05,-1.87,-11.15
61.056,3.91,-0.33,-15.21
