NAME:,yoniwal3.csv
EXPERIMENT TIME:,Tue May 24 16:53:25 GMT+03:00 2022
ACTIVITY TYPE:,Walking
COUNT OF ACTUAL STEPS:,77

Time [sec],ACC X,ACC Y,ACC Z
1041.35,1.33,9.10,2.31
1041.41,1.06,9.26,2.0
1041.46,1.69,9.30,1.26
1041.51,1.45,9.49,1.45
1041.57,1.69,9.18,1.26
1041.62,1.49,9.34,1.18
1041.68,1.10,9.41,1.1
1041.73,0.24,9.38,1.65
1041.78,0.59,9.38,1.84
1041.84,0.24,8.75,2.63
1041.89,0.47,9.34,2.12
1041.94,0.59,8.36,2.94
1042.00,0.20,8.98,2.71
1042.05,-0.43,9.34,2.0
1042.11,-0.43,9.41,2.16
1042.16,-0.39,9.14,2.24
1042.21,-0.82,9.45,1.96
1042.27,0.55,8.55,1.84
1042.32,0.00,10.36,1.37
1042.38,0.55,13.26,1.14
1042.43,0.08,11.26,2.08
1042.48,1.65,11.02,2.2
1042.54,1.69,7.41,1.77
1042.59,1.57,9.26,1.61
1042.65,0.59,8.98,0.67
1042.70,2.75,9.02,0.35
1042.75,2.98,9.06,0.75
1042.81,1.69,8.08,1.77
1042.86,1.53,8.00,2.82
1042.92,1.61,6.47,3.49
1042.97,1.37,6.04,4.08
1043.02,1.10,6.94,5.06
1043.08,2.47,9.65,4.82
1043.13,2.16,10.47,5.49
1043.19,-0.08,8.00,9.34
1043.24,5.18,6.43,2.82
1043.29,8.71,19.93,1.37
1043.34,0.24,5.14,2.12
1043.40,1.96,10.83,0.75
1043.45,2.51,7.61,1.65
1043.51,1.69,7.37,1.49
1043.56,0.55,7.22,2.08
1043.61,-0.24,8.94,2.31
1043.67,0.90,8.87,1.8
1043.72,1.02,9.02,1.41
1043.78,0.47,9.41,1.73
1043.83,0.31,9.34,1.14
1043.88,0.90,11.06,2.04
1043.94,-1.02,11.81,2.0
1043.99,0.71,11.06,1.18
1044.05,1.02,11.45,2.12
1044.10,5.10,9.30,0.51
1044.15,1.49,9.85,1.92
1044.20,0.82,10.00,2.51
1044.26,1.73,9.02,0.27
1044.31,2.35,8.55,1.45
1044.37,3.26,8.08,2.2
1044.42,1.61,7.49,2.75
1044.47,0.94,6.20,3.37
1044.53,1.41,7.18,3.96
1044.58,1.73,8.75,5.06
1044.64,1.14,9.81,5.06
1044.69,0.90,10.12,7.14
1044.74,1.49,9.41,7.69
1044.80,7.30,11.22,-0.27
1044.85,6.00,6.55,3.8
1044.91,1.73,6.71,1.77
1044.96,2.08,11.26,1.61
1045.01,2.39,5.96,2.39
1045.06,2.39,7.37,1.37
1045.12,0.04,8.47,2.28
1045.17,0.27,9.38,2.12
1045.23,0.71,8.98,2.04
1045.28,0.51,8.79,1.96
1045.33,1.14,8.43,1.92
1045.39,1.02,9.45,0.67
1045.44,0.86,10.43,1.92
1045.50,-0.75,11.30,2.9
1045.55,0.59,12.75,0.0
1045.60,2.08,12.87,1.18
1045.66,4.79,9.06,0.27
1045.71,0.94,10.55,2.2
1045.77,1.57,8.08,2.59
1045.82,0.75,8.63,0.78
1045.87,2.90,8.08,0.78
1045.93,2.71,7.57,2.39
1045.98,1.22,6.55,3.33
1046.04,1.06,5.88,3.69
1046.09,1.88,7.73,4.12
1046.14,2.35,10.08,5.49
1046.20,1.65,9.14,6.35
1046.25,2.82,12.63,8.08
1046.30,4.55,12.87,3.22
1046.36,5.57,3.92,4.63
1046.41,1.73,9.69,-0.35
1046.46,2.31,8.71,2.24
1046.52,2.35,6.24,2.35
1046.57,1.18,8.04,1.8
1046.63,-0.12,7.77,1.84
1046.68,0.82,8.98,1.69
1046.73,1.10,9.45,2.0
1046.79,-0.67,8.63,2.51
1046.84,0.90,8.59,2.39
1046.90,2.51,9.65,1.77
1046.95,-2.20,10.94,2.47
1047.00,-0.35,11.26,1.77
1047.06,1.06,13.49,2.47
1047.11,5.10,10.43,0.27
1047.16,1.41,9.49,2.12
1047.21,0.59,9.34,1.29
1047.27,1.84,8.59,0.9
1047.32,1.84,8.00,1.69
1047.38,2.86,8.04,2.39
1047.43,1.06,7.45,3.49
1047.48,0.47,6.24,3.45
1047.54,1.22,7.26,4.71
1047.59,1.73,9.61,4.94
1047.64,2.43,9.89,4.94
1047.69,1.22,9.96,8.94
1047.75,3.30,9.22,5.61
1047.80,7.18,10.94,3.88
1047.86,2.98,5.73,2.0
1047.91,3.33,6.67,-1.14
1047.96,2.31,6.86,2.0
1048.02,3.26,6.79,0.78
1048.07,0.20,8.04,2.31
1048.13,-1.45,9.41,2.86
1048.18,-0.04,8.98,2.67
1048.23,-0.08,8.90,1.88
1048.29,0.39,8.67,2.39
1048.34,1.53,9.26,1.29
1048.39,2.12,10.98,2.47
1048.45,-1.57,10.43,3.45
1048.50,0.67,11.57,0.31
1048.55,3.41,11.18,1.73
1048.61,3.92,8.28,0.71
1048.66,0.51,11.81,3.73
1048.71,1.41,8.67,2.86
1048.77,0.39,8.16,1.49
1048.82,3.02,7.85,1.73
1048.88,2.86,7.61,2.63
1048.93,1.61,5.81,3.57
1048.98,0.90,6.39,3.8
1049.04,1.22,8.63,4.86
1049.09,1.88,10.28,4.9
1049.14,1.33,10.43,6.04
1049.19,0.16,9.30,9.1
1049.25,7.69,11.49,1.1
1049.30,6.59,9.61,4.59
1049.36,1.45,6.55,1.73
1049.41,2.47,9.85,2.04
1049.46,2.28,7.53,1.06
1049.52,2.43,7.06,1.26
1049.57,-0.59,8.83,2.31
1049.62,0.04,9.18,2.67
1049.68,0.82,8.75,1.96
1049.73,0.39,8.79,1.96
1049.79,1.02,8.63,2.0
1049.84,1.10,9.89,0.82
1049.89,0.20,10.40,2.82
1049.95,-0.98,11.34,0.0
1050.00,2.59,12.43,0.35
1050.05,4.59,13.26,-0.75
1050.11,1.29,8.83,2.28
1050.16,0.75,10.43,2.98
1050.22,2.16,8.63,0.39
1050.27,1.10,8.39,0.98
1050.32,3.14,8.12,2.59
1050.38,1.14,7.65,2.9
1050.43,0.86,5.96,3.77
1050.49,0.94,6.67,4.39
1050.54,1.45,8.94,4.98
1050.59,1.57,9.41,4.94
1050.65,0.78,11.14,6.35
1050.70,1.45,9.18,8.36
1050.76,7.81,11.73,0.43
1050.81,3.92,3.77,2.9
1050.86,1.29,8.94,0.78
1050.92,2.94,9.41,0.9
1050.97,2.75,6.75,1.88
1051.02,1.10,8.32,1.22
1051.08,-0.55,8.67,2.71
1051.13,0.59,9.18,2.39
1051.18,0.90,8.67,2.12
1051.24,-0.75,9.02,2.2
1051.29,0.71,8.67,2.35
1051.35,1.02,9.38,1.18
1051.40,0.75,11.22,2.24
1051.45,-1.57,10.16,1.84
1051.51,1.65,11.85,0.98
1051.56,5.30,12.04,0.63
1051.61,2.55,7.77,1.84
1051.67,0.90,9.49,2.79
1051.72,2.04,8.98,1.26
1051.78,2.39,8.55,1.14
1051.83,3.18,8.04,2.04
1051.88,1.37,8.08,2.82
1051.94,0.35,6.71,3.8
1051.99,1.22,6.55,3.88
1052.05,2.43,7.65,4.63
1052.10,1.61,8.43,5.96
1052.15,1.18,10.40,5.81
1052.21,-0.27,9.61,10.08
1052.26,6.59,10.79,0.86
1052.32,7.34,11.57,-0.71
1052.37,2.31,4.20,2.82
1052.42,1.10,11.18,0.78
1052.48,1.61,6.94,1.84
1052.53,1.29,7.41,1.45
1052.59,-0.08,8.43,1.92
1052.64,-0.24,9.30,2.08
1052.69,-0.12,8.87,2.24
1052.75,0.43,8.75,2.28
1052.80,0.39,9.18,2.16
1052.86,1.69,9.30,3.18
1052.91,-0.75,10.43,3.73
1052.96,1.18,12.36,-0.82
1053.02,1.61,12.75,1.65
1053.07,3.61,9.10,0.27
1053.13,0.35,10.71,2.47
1053.18,2.75,8.12,-0.16
1053.23,1.18,8.71,1.22
1053.29,2.75,7.53,1.77
1053.34,1.69,7.73,3.77
1053.40,0.59,6.35,3.53
1053.45,0.71,6.04,4.35
1053.50,0.55,8.87,5.06
1053.56,1.88,10.67,4.0
1053.61,1.33,10.28,7.73
1053.67,1.29,9.73,9.26
1053.72,8.24,14.12,-1.92
1053.77,3.92,5.10,4.39
1053.82,2.24,8.59,-1.22
1053.88,3.49,9.10,1.61
1053.93,1.49,7.10,2.0
1053.98,0.04,7.49,2.0
1054.04,-1.14,8.55,2.75
1054.09,0.43,9.41,2.55
1054.15,0.75,8.83,2.0
1054.20,-0.20,8.94,2.31
1054.25,0.82,8.94,2.67
1054.31,1.26,10.83,1.29
1054.36,-1.80,9.81,3.1
1054.42,1.41,10.87,2.67
1054.47,1.65,11.61,2.51
1054.52,5.30,11.65,-0.51
1054.58,1.10,10.79,1.41
1054.63,0.98,8.94,2.0
1054.69,0.98,8.75,-0.16
1054.74,1.80,7.96,1.65
1054.79,2.67,8.28,2.31
1054.85,1.29,7.10,3.33
1054.90,0.55,5.84,3.73
1054.95,0.86,7.22,4.39
1055.01,1.73,9.49,4.9
1055.06,0.90,10.04,4.51
1055.12,1.18,10.43,7.18
1055.17,1.92,10.40,7.37
1055.22,8.16,12.08,-2.2
1055.28,4.63,5.37,3.02
1055.33,0.75,9.34,0.67
1055.38,2.04,9.96,1.02
1055.44,2.39,6.51,2.04
1055.49,1.22,8.39,1.77
1055.54,-0.78,9.18,2.16
1055.60,0.00,9.92,2.2
1055.65,0.20,8.90,2.04
1055.70,0.08,8.83,2.28
1055.76,1.18,9.06,2.08
1055.81,1.53,9.41,1.37
1055.86,-0.94,11.89,1.06
1055.92,-1.96,10.16,2.59
1055.97,1.88,9.38,2.43
1056.03,4.67,11.22,-0.67
1056.08,2.63,8.55,0.75
1056.13,0.39,10.94,3.77
1056.19,1.73,8.90,0.71
1056.24,0.24,8.47,1.37
1056.30,3.45,8.04,1.77
1056.35,2.04,8.04,3.02
1056.40,0.82,6.47,3.77
1056.46,1.10,6.35,4.0
1056.51,1.22,8.55,4.86
1056.56,1.96,10.32,5.22
1056.62,1.29,10.04,5.1
1056.67,0.39,9.34,10.08
1056.73,7.41,11.22,-1.45
1056.78,5.33,7.34,3.57
1056.83,0.55,7.22,2.12
1056.89,2.79,9.96,1.73
1056.94,3.41,6.55,-0.16
1057.00,0.59,8.04,1.57
1057.05,-0.78,8.47,2.67
1057.10,0.27,9.96,2.51
1057.16,0.39,9.06,2.24
1057.21,0.94,8.47,2.16
1057.27,1.41,9.10,1.73
1057.32,1.65,8.90,1.49
1057.37,0.51,10.75,2.51
1057.43,-1.53,10.71,0.39
1057.48,2.24,11.77,0.55
1057.54,3.37,12.79,-0.04
1057.59,3.06,7.37,0.78
1057.64,1.33,10.24,1.61
1057.70,1.84,9.61,1.14
1057.75,0.82,8.51,1.06
1057.80,2.63,8.24,1.65
1057.86,2.31,8.08,2.43
1057.91,0.51,6.28,3.53
1057.97,0.90,6.32,3.69
1058.02,0.98,7.57,4.51
1058.07,1.57,9.96,5.14
1058.13,1.37,10.32,5.1
1058.18,-0.63,10.08,9.18
1058.24,4.20,6.90,3.26
1058.29,8.36,15.57,1.02
1058.34,3.37,5.22,-0.39
1058.40,-1.77,16.20,-5.1
1058.45,1.84,7.22,2.82
1058.51,2.47,7.49,1.69
1058.56,1.84,7.41,2.79
1058.61,-0.20,9.77,2.28
1058.67,-0.12,8.83,2.55
1058.72,-0.43,8.94,2.43
1058.77,0.55,9.02,2.2
1058.83,0.47,9.45,1.14
1058.88,1.53,9.77,2.24
1058.94,-0.86,10.79,3.06
1058.99,-0.08,10.90,1.18
1059.04,1.45,11.89,1.77
1059.10,4.67,10.00,-0.35
1059.15,1.73,9.41,1.92
1059.21,1.53,10.28,2.04
1059.26,1.18,8.43,0.94
1059.31,1.37,8.36,1.84
1059.37,2.90,7.88,2.12
1059.42,1.77,7.65,2.55
1059.48,1.33,6.12,3.53
1059.53,0.78,7.22,4.04
1059.58,1.45,9.38,4.82
1059.64,1.14,9.81,5.02
1059.69,1.18,10.12,6.39
1059.74,2.75,10.36,7.1
1059.80,6.51,11.89,0.35
1059.85,6.83,5.37,5.37
1059.91,0.71,7.81,1.33
1059.96,2.86,10.20,0.63
1060.02,2.71,6.71,1.88
1060.07,1.88,8.24,1.57
1060.12,-0.27,8.98,2.63
1060.18,-0.98,9.38,2.47
1060.23,0.12,8.87,2.75
1060.29,0.24,8.87,2.31
1060.34,0.67,8.47,1.88
1060.39,1.57,9.34,1.73
1060.45,1.73,9.85,2.55
1060.50,-1.33,9.96,3.18
1060.56,1.61,11.77,0.39
1060.61,0.78,12.83,0.51
1060.66,3.53,8.04,-0.08
1060.72,1.14,9.69,1.18
1060.77,1.06,10.43,1.45
1060.82,0.27,9.10,1.02
1060.88,2.43,8.24,1.29
1060.93,2.71,8.16,2.24
1060.99,0.39,6.86,3.1
1061.04,0.82,6.35,3.92
1061.09,0.71,7.77,4.75
1061.15,1.57,9.49,4.94
1061.20,2.31,9.89,4.63
1061.26,1.14,11.18,8.0
1061.31,5.81,11.57,2.86
1061.36,5.69,8.90,5.06
1061.42,2.16,7.41,1.18
1061.47,2.20,10.08,0.31
1061.53,2.00,7.26,2.12
1061.58,1.33,7.53,1.96
1061.64,0.00,7.88,2.08
1061.69,-0.27,8.63,2.59
1061.74,1.73,9.45,1.92
1061.80,0.12,8.63,2.35
1061.85,0.00,8.83,2.16
1061.91,0.75,9.96,0.67
1061.96,1.49,10.98,2.2
1062.01,-1.73,10.75,2.9
1062.07,1.06,11.02,0.94
1062.12,0.67,11.41,2.43
1062.18,4.63,9.30,-0.2
1062.23,1.41,9.34,1.77
1062.28,1.45,10.47,1.65
1062.34,1.92,7.88,0.39
1062.39,2.35,8.32,1.33
1062.44,3.02,8.20,2.43
1062.50,0.90,7.53,3.1
1062.55,0.82,6.20,4.04
1062.61,0.75,7.41,4.59
1062.66,1.02,9.57,4.94
1062.71,1.49,9.53,4.59
1062.77,0.82,10.87,7.49
1062.82,4.31,9.65,6.0
1062.88,6.75,15.18,2.31
1062.93,3.02,3.73,0.27
1062.98,1.53,9.14,0.47
1063.04,2.51,7.61,2.16
1063.09,2.98,7.57,1.8
1063.15,0.63,8.36,1.61
1063.20,-0.47,8.59,2.86
1063.25,0.51,9.06,2.55
1063.31,0.59,9.18,2.28
1063.36,0.12,8.79,2.31
1063.42,0.63,8.63,2.59
1063.47,0.24,10.43,0.31
1063.52,0.67,10.59,2.43
1063.58,-1.49,9.89,2.94
1063.63,2.16,10.36,2.39
1063.69,3.26,11.85,0.27
1063.74,3.80,7.73,0.75
1063.79,1.41,11.06,1.53
1063.85,0.86,10.47,2.35
1063.90,0.71,7.69,1.1
1063.95,2.31,8.20,1.92
1064.01,3.10,8.36,2.31
1064.06,1.14,7.30,2.39
1064.12,1.18,6.08,3.92
1064.17,1.06,7.81,4.39
1064.22,1.61,9.53,5.37
1064.28,-0.04,10.20,4.16
1064.33,1.02,10.00,7.77
1064.39,4.98,10.32,4.47
1064.44,8.51,13.93,3.8
1064.50,4.67,4.00,0.27
1064.55,0.04,10.51,1.33
1064.60,0.86,12.43,-1.77
1064.66,2.08,7.18,1.65
1064.71,1.53,7.61,2.31
1064.77,1.18,7.92,2.43
1064.82,1.84,8.83,2.0
1064.87,-0.12,8.63,2.51
1064.93,0.08,8.51,2.59
1064.98,1.33,8.94,2.2
1065.04,1.37,8.75,1.92
1065.09,0.78,9.92,1.73
1065.14,-1.06,11.18,2.67
1065.20,0.55,11.18,1.96
1065.25,0.20,11.41,2.24
1065.31,6.20,10.59,-0.59
1065.36,2.00,9.30,1.65
1065.41,0.98,9.89,2.63
1065.47,0.16,9.02,0.47
1065.52,1.80,8.16,1.33
1065.57,3.10,7.88,2.43
1065.63,1.92,6.83,3.37
1065.68,1.02,6.32,3.57
1065.74,0.94,7.22,4.24
1065.79,1.61,9.10,4.94
1065.84,1.37,10.51,5.02
1065.90,0.86,11.34,6.94
1065.95,2.86,9.61,6.79
1066.01,6.16,14.55,2.43
1066.06,5.02,4.31,1.73
1066.11,1.22,9.57,1.1
1066.17,2.47,7.37,2.28
1066.22,2.75,7.02,2.31
1066.28,1.65,7.37,1.88
1066.33,-0.71,9.26,2.71
1066.39,0.12,9.18,2.9
1066.44,-0.24,8.71,2.63
1066.49,-0.43,8.67,2.67
1066.55,1.65,7.57,3.33
1066.60,1.57,9.69,1.65
1066.66,0.90,10.59,2.08
1066.71,-2.24,11.38,0.86
1066.76,0.86,11.77,2.28
1066.82,4.08,11.65,0.39
1066.87,3.69,7.06,0.63
1066.93,2.12,10.24,1.92
1066.98,1.49,9.73,1.33
1067.03,0.51,8.32,1.53
1067.09,2.63,8.59,1.65
1067.14,2.94,7.81,2.47
1067.19,1.22,6.35,3.22
1067.25,0.94,6.86,3.53
1067.30,1.02,8.16,4.28
1067.36,1.49,8.94,5.1
1067.41,1.06,9.57,5.02
1067.46,1.65,9.73,6.47
1067.52,4.08,11.61,6.04
1067.57,6.08,12.71,0.59
1067.63,6.67,6.08,2.94
1067.68,-0.12,7.41,-0.63
1067.73,2.51,9.69,0.43
1067.79,3.73,6.35,1.06
1067.84,2.98,9.26,1.22
1067.90,-1.33,8.12,2.08
1067.95,-0.43,9.26,2.51
1068.00,1.53,9.69,1.33
1068.06,0.71,9.02,2.08
1068.11,0.08,8.75,2.55
1068.16,0.71,9.14,1.22
1068.22,2.00,9.57,2.51
1068.27,0.35,10.28,3.65
1068.32,0.78,10.12,1.14
1068.38,0.82,12.28,1.22
1068.43,5.37,10.94,-0.59
1068.49,2.63,7.06,1.92
1068.54,1.77,9.49,2.79
1068.59,1.26,9.53,3.06
1068.65,1.26,8.16,1.22
1068.70,3.18,7.92,1.69
1068.76,2.63,7.73,2.75
1068.81,1.02,5.84,3.84
1068.86,1.26,6.86,4.12
1068.92,1.45,8.51,5.14
1068.97,1.80,10.08,4.9
1069.02,0.82,10.87,6.08
1069.08,0.90,10.55,9.85
1069.13,6.71,15.97,-2.51
1069.19,4.39,4.47,1.02
1069.24,2.35,7.88,-0.39
1069.29,2.75,9.77,1.53
1069.35,2.71,6.94,2.0
1069.40,1.22,7.37,1.92
1069.45,-0.63,8.90,2.55
1069.51,0.82,9.18,2.12
1069.56,0.27,9.02,2.31
1069.61,-0.31,8.75,2.43
1069.67,0.82,8.94,2.12
1069.72,2.16,9.85,2.08
1069.78,0.47,10.87,1.53
1069.83,-0.08,11.26,1.41
1069.88,1.33,12.51,2.51
1069.94,4.24,10.04,0.16
1069.99,1.88,7.45,0.94
1070.04,1.33,10.24,1.65
1070.10,1.06,10.20,0.04
1070.15,2.16,8.24,0.71
1070.20,3.30,8.24,2.2
1070.26,1.61,8.00,2.75
1070.31,0.67,6.67,4.31
1070.36,0.82,7.18,4.2
1070.42,1.69,7.92,4.75
1070.47,1.69,9.53,4.75
1070.53,-0.43,10.59,5.3
1070.58,1.18,10.71,6.71
1070.63,4.39,10.51,5.14
1070.69,6.98,13.02,1.53
1070.74,3.37,4.08,1.73
1070.79,-0.27,10.36,1.96
1070.85,2.28,7.88,2.43
1070.90,3.41,6.83,1.73
1070.95,1.10,8.47,1.8
1071.01,-0.35,9.10,2.12
1071.06,0.78,8.75,1.73
1071.11,0.47,9.65,1.49
1071.17,0.12,9.06,2.04
1071.22,0.82,8.43,1.65
1071.28,1.41,9.77,1.8
1071.33,-0.16,10.40,2.75
1071.38,-0.55,10.20,-0.08
1071.44,2.39,11.38,2.47
1071.49,4.00,12.08,-0.2
1071.54,1.84,8.79,0.82
1071.60,0.98,9.61,2.39
1071.65,1.77,9.92,0.55
1071.70,1.18,7.81,1.77
1071.76,2.86,8.32,1.57
1071.81,1.88,8.00,2.28
1071.87,0.59,6.08,3.45
1071.92,1.06,6.12,4.2
1071.97,1.18,8.67,4.75
1072.03,1.45,10.20,4.9
1072.08,2.20,10.20,5.18
1072.13,-0.67,9.92,11.26
1072.19,7.26,12.08,1.41
1072.24,6.00,7.06,2.47
1072.30,1.96,6.86,1.65
1072.35,5.10,13.42,4.75
1072.40,2.35,7.14,2.0
1072.46,1.29,7.73,1.61
1072.51,0.27,8.75,0.47
1072.56,-0.47,8.98,2.67
1072.62,0.51,9.14,2.47
1072.67,0.16,8.43,2.63
1072.72,0.71,8.90,1.84
1072.78,1.06,9.45,1.33
1072.83,1.49,10.79,2.04
1072.89,-1.80,11.26,2.75
1072.94,2.12,12.40,-0.43
1072.99,3.57,11.57,2.63
1073.05,1.92,8.04,0.86
1073.10,0.43,10.83,2.2
1073.16,1.77,9.45,1.37
1073.21,1.41,8.20,0.67
1073.26,2.82,8.59,1.41
1073.32,2.24,8.43,2.59
1073.37,1.06,6.35,3.49
1073.42,1.14,6.20,3.45
1073.48,1.06,7.53,4.67
1073.53,1.49,9.85,4.63
1073.58,1.33,9.92,5.14
1073.64,0.86,9.85,8.2
1073.69,3.49,7.41,4.39
1073.75,8.47,13.69,2.08
1073.80,2.75,6.43,2.39
1073.85,1.69,9.14,0.43
1073.91,1.88,8.08,1.77
1073.96,2.08,6.04,3.1
1074.01,0.67,8.75,2.12
1074.07,-0.31,8.20,2.63
1074.12,1.41,9.49,1.84
1074.18,-0.04,9.18,2.2
1074.23,0.39,9.06,2.16
1074.28,1.61,8.75,1.69
1074.34,1.96,9.53,1.53
1074.39,-0.47,10.63,2.47
1074.44,-1.02,10.00,1.1
1074.50,2.31,11.38,0.27
1074.55,4.31,13.38,0.04
1074.60,1.65,6.71,1.33
1074.66,1.22,9.92,0.94
1074.71,2.35,8.90,0.31
1074.77,1.88,8.12,0.55
1074.82,3.10,8.59,1.49
1074.87,1.33,8.98,2.43
1074.93,1.37,6.51,3.41
1074.98,1.33,7.06,3.45
1075.04,1.45,7.69,3.88
1075.09,1.10,8.28,5.3
1075.14,1.45,9.57,4.59
1075.20,1.84,10.16,5.65
1075.25,-0.35,8.63,9.92
1075.31,7.49,11.10,1.37
1075.36,4.71,11.34,4.71
1075.41,2.16,4.67,2.08
1075.47,1.14,9.22,2.79
1075.52,2.43,7.41,1.45
1075.57,2.04,7.92,1.84
1075.63,1.29,7.49,1.18
1075.68,0.78,9.38,2.75
1075.74,1.41,8.08,1.84
1075.79,-0.04,9.14,2.28
1075.84,1.22,8.90,1.65
1075.90,1.49,8.90,1.37
1075.95,0.98,9.49,1.69
1076.01,0.20,10.79,2.75
1076.06,-1.37,10.40,2.9
1076.11,1.53,12.51,1.02
1076.17,2.12,11.57,1.69
1076.22,3.41,7.34,0.82
1076.28,1.69,8.67,1.41
1076.33,1.84,8.75,1.29
1076.39,1.96,8.98,1.22
1076.44,2.63,9.02,1.33
1076.49,2.82,8.43,2.31
1076.55,2.00,7.30,2.79
1076.60,1.57,6.98,3.49
1076.66,1.69,7.53,4.2
1076.71,1.57,7.57,4.79
1076.76,1.57,8.28,5.37
1076.82,1.29,10.36,4.51
1076.87,2.67,7.85,8.12
1076.93,2.63,9.49,6.79
1076.98,6.79,14.79,3.18
1077.03,2.90,3.92,1.53
1077.09,-1.37,11.41,-1.1
1077.14,1.41,5.77,4.55
1077.19,2.35,8.20,1.88
1077.25,0.90,8.75,1.69
1077.30,-0.47,8.94,2.71
1077.36,0.94,8.55,2.0
1077.41,1.26,9.14,1.88
1077.46,1.41,8.75,1.61
1077.52,0.86,9.41,1.45
1077.57,0.63,9.22,1.49
1077.63,0.98,10.28,2.2
1077.68,-0.67,10.36,2.82
1077.73,1.69,11.53,1.06
1077.79,1.57,12.79,1.69
1077.84,3.84,10.24,0.67
1077.90,1.22,7.37,0.82
1077.95,2.16,9.30,0.9
1078.01,1.61,9.53,0.9
1078.06,2.16,8.71,0.98
1078.11,2.82,8.71,2.43
1078.17,1.53,7.92,2.71
1078.22,1.22,6.86,3.45
1078.28,1.41,7.10,4.08
1078.33,1.02,7.26,4.79
1078.38,1.37,8.90,4.94
1078.44,1.92,9.73,5.18
1078.49,1.77,9.49,8.32
1078.55,1.88,8.75,8.47
1078.60,7.14,11.73,-1.69
1078.65,2.39,6.90,2.94
1078.71,2.71,7.14,0.94
1078.76,1.96,9.22,1.1
1078.81,2.04,6.86,1.73
1078.87,2.67,7.34,1.33
1078.92,1.92,8.32,2.63
1078.98,0.98,9.57,1.69
1079.03,0.67,8.90,1.92
1079.08,1.37,9.18,1.61
1079.14,1.29,9.22,1.61
1079.19,0.47,9.34,1.61
1079.25,0.71,10.90,2.2
1079.30,-0.82,10.83,3.22
1079.35,0.94,10.79,1.45
1079.41,1.49,12.20,1.61
1079.46,3.80,10.87,0.31
1079.52,2.16,6.98,0.82
1079.57,1.84,9.57,1.41
1079.62,2.12,9.02,1.26
1079.68,2.24,8.67,1.77
1079.73,2.90,8.55,1.69
1079.79,1.77,8.71,2.24
1079.84,1.49,7.34,2.94
1079.89,2.12,7.34,3.18
1079.95,1.69,7.81,4.43
1080.00,1.02,8.00,4.86
1080.06,1.10,8.39,4.98
1080.11,1.29,9.26,5.33
1080.16,1.49,8.79,6.51
1080.22,2.20,9.45,5.84
1080.27,3.73,9.96,3.26
1080.32,5.92,11.14,3.1
1080.38,2.08,4.63,3.14
1080.43,1.10,10.36,1.49
1080.49,0.47,7.53,2.28
1080.54,4.35,7.30,0.82
1080.59,0.78,8.83,1.96
1080.65,0.82,8.47,2.08
1080.70,1.33,8.83,1.69
1080.76,0.82,9.45,1.8
1080.81,0.51,9.10,1.77
1080.86,1.14,9.10,1.53
1080.92,0.63,9.06,1.53
1080.97,0.82,9.92,1.61
1081.03,0.67,10.75,2.24
1081.08,-0.39,10.90,2.79
1081.14,1.29,10.40,1.37
1081.19,1.53,11.18,1.73
1081.24,3.88,10.08,0.16
1081.30,2.28,7.41,0.51
1081.35,2.20,9.10,1.77
1081.41,2.04,9.34,1.06
1081.46,2.20,9.38,1.29
1081.51,2.98,8.47,2.08
1081.57,2.59,8.24,2.63
1081.62,1.69,6.90,3.1
1081.68,1.92,7.18,3.96
1081.73,0.86,8.71,4.94
1081.78,1.41,8.24,4.86
1081.84,2.71,7.49,5.81
1081.89,1.37,10.24,5.53
1081.94,0.94,8.63,6.98
1082.00,2.79,10.51,5.81
1082.05,4.12,11.92,1.26
1082.11,5.02,3.41,4.2
1082.16,2.28,8.32,1.49
1082.21,2.31,8.67,2.0
1082.27,3.10,7.14,1.77
1082.32,1.26,8.98,2.0
1082.38,-0.20,8.90,2.75
1082.43,0.98,8.67,2.16
1082.48,1.37,8.83,1.8
1082.54,0.31,8.90,1.92
1082.59,0.35,9.06,2.35
1082.65,0.78,9.22,1.53
1082.70,1.29,10.71,1.73
1082.76,-0.59,11.38,2.31
1082.81,-0.75,11.30,0.94
1082.86,1.22,11.61,0.31
1082.92,3.10,10.04,1.02
1082.97,2.86,8.20,0.78
1083.03,2.55,8.63,1.26
1083.08,1.73,9.65,1.29
1083.13,1.96,8.20,0.75
1083.19,3.02,8.90,1.14
1083.24,2.75,8.39,2.28
1083.30,0.86,7.06,3.3
1083.35,0.82,7.57,3.53
1083.40,1.26,7.22,4.82
1083.46,1.02,7.69,5.49
1083.51,2.00,8.08,6.28
1083.56,1.14,10.79,5.14
1083.62,1.65,8.90,9.41
1083.67,4.47,9.65,7.65
1083.73,5.49,12.43,2.86
1083.78,2.86,6.24,2.94
1083.83,2.12,6.51,1.84
1083.89,3.30,4.71,1.29
1083.94,2.63,8.08,1.73
1084.00,1.65,8.75,1.96
1084.05,0.63,8.59,2.2
1084.10,0.75,8.28,2.24
1084.16,0.55,9.26,2.16
1084.21,0.51,9.41,1.65
1084.27,0.82,9.30,1.33
1084.32,0.98,8.98,1.53
1084.38,1.06,10.40,1.96
1084.43,0.08,11.22,2.94
1084.48,1.29,10.00,-0.16
1084.54,2.31,12.28,1.49
1084.59,4.43,11.57,0.47
1084.65,1.96,7.53,0.75
1084.70,1.49,9.02,0.47
1084.75,1.69,9.06,-0.47
1084.81,2.47,8.59,0.82
1084.86,2.59,8.51,1.96
1084.92,1.49,8.47,2.35
1084.97,0.75,6.47,3.3
1085.02,1.29,7.18,3.92
1085.08,0.86,7.61,5.3
1085.13,0.71,8.59,5.3
1085.19,1.69,9.85,5.37
1085.24,2.04,9.45,6.86
1085.29,3.69,8.83,5.06
1085.35,6.90,12.04,1.69
1085.40,2.51,4.51,2.59
1085.45,2.28,6.16,0.75
1085.51,2.47,8.24,1.53
1085.56,3.06,7.14,2.08
1085.62,2.24,9.14,1.57
1085.67,-0.04,8.87,1.92
1085.72,-0.04,8.00,2.12
1085.78,1.10,9.22,1.96
1085.83,1.22,9.30,2.35
1085.89,0.63,8.87,1.8
1085.94,0.67,9.34,1.06
1085.99,1.26,9.49,1.77
1086.05,0.31,10.94,2.28
1086.10,-1.41,11.89,2.59
1086.16,1.53,11.77,1.77
1086.21,1.33,11.06,2.2
1086.27,2.67,8.98,0.63
1086.32,2.31,8.08,0.12
1086.37,2.31,9.57,0.75
1086.43,2.16,9.14,0.78
1086.48,2.24,8.94,1.65
1086.54,2.39,8.55,2.55
1086.59,1.37,8.63,2.24
1086.64,0.98,6.47,3.77
1086.70,1.61,7.30,4.63
1086.75,1.02,8.20,5.26
1086.81,1.06,8.75,5.45
1086.86,1.45,10.04,4.9
1086.91,1.10,10.20,7.34
1086.97,0.94,7.41,7.18
1087.02,7.06,12.16,-2.9
1087.07,4.20,6.79,2.43
1087.13,6.08,8.63,5.18
1087.18,0.86,9.65,2.31
1087.24,2.90,6.71,2.24
1087.29,2.55,8.63,1.84
1087.34,-0.35,8.90,2.67
1087.40,0.82,8.75,1.73
1087.45,1.22,9.61,1.26
1087.51,0.43,9.22,1.77
1087.56,0.71,9.02,1.84
1087.61,1.29,9.34,1.77
1087.67,1.37,11.65,1.92
1087.72,-1.92,10.79,2.79
1087.78,1.22,11.30,1.57
1087.83,1.06,11.34,1.18
1087.89,4.39,10.75,-0.08
1087.94,2.43,8.16,0.67
1087.99,1.88,9.34,0.31
1088.05,1.57,10.08,0.75
1088.10,2.71,8.59,1.37
1088.16,3.02,8.90,1.84
1088.21,1.33,8.12,2.71
1088.26,0.55,6.55,3.65
1088.32,0.98,6.98,4.24
1088.37,0.98,7.34,5.37
1088.43,0.67,9.02,5.14
1088.48,1.06,9.49,5.41
1088.53,1.22,9.45,6.94
1088.59,4.04,9.26,5.41
1088.64,5.77,13.69,5.53
1088.69,3.02,4.82,2.63
1088.75,1.29,7.92,1.69
1088.80,2.16,9.14,1.65
1088.86,4.12,10.24,3.49
1088.91,1.92,8.36,1.69
1088.96,1.77,8.28,1.88
1089.02,0.78,9.14,1.8
1089.07,-0.20,9.10,2.28
1089.13,0.63,8.98,1.92
1089.18,1.22,8.94,1.65
1089.23,0.08,9.02,1.77
1089.29,0.16,9.49,1.69
1089.34,1.02,9.96,1.49
1089.40,-0.43,11.41,1.57
1089.45,0.16,11.41,1.49
1089.51,1.69,13.14,0.24
1089.56,2.75,10.36,1.06
1089.61,1.77,7.34,1.18
1089.67,1.65,7.96,0.51
1089.72,2.16,10.20,0.59
1089.78,2.51,9.26,-0.04
1089.83,2.39,8.98,1.73
1089.88,2.31,8.90,1.77
1089.94,1.53,7.26,3.33
1089.99,1.57,6.94,3.14
1090.05,2.24,7.18,4.04
1090.10,0.98,7.92,4.67
1090.15,1.06,8.83,5.14
1090.21,1.14,10.00,5.73
1090.26,2.08,9.38,7.41
1090.31,3.61,9.02,6.04
1090.37,4.20,9.69,1.73
1090.42,5.26,8.55,4.0
1090.48,2.59,6.08,1.61
1090.53,2.08,8.43,1.77
1090.58,2.35,12.55,-2.86
1090.64,2.82,9.14,1.37
1090.69,0.75,8.12,1.37
1090.75,0.63,8.28,1.73
1090.80,0.98,8.87,1.06
1090.85,0.86,9.14,1.49
1090.91,0.39,8.94,1.84
1090.96,0.51,9.41,1.69
1091.02,1.29,8.90,1.14
1091.07,0.82,11.69,2.2
1091.13,-2.16,11.89,2.0
1091.18,1.33,12.00,1.61
1091.23,0.51,11.77,1.84
1091.29,3.80,9.14,0.94
1091.34,2.82,7.41,-0.08
1091.40,2.43,8.32,0.9
1091.45,1.88,9.92,0.63
1091.50,2.00,8.08,1.26
1091.56,2.39,9.45,1.45
1091.61,2.16,8.75,2.04
1091.67,1.57,7.53,2.86
1091.72,2.00,7.14,3.41
1091.77,2.04,7.10,4.16
1091.83,1.73,7.53,5.22
1091.88,0.08,8.94,5.06
1091.94,1.18,9.81,6.63
1091.99,2.00,10.20,7.57
1092.04,3.37,10.04,7.41
1092.10,1.57,10.16,4.12
1092.15,4.00,6.39,2.63
1092.20,4.08,7.49,1.41
1092.26,2.63,7.73,1.26
1092.31,2.71,8.67,1.02
1092.37,3.14,8.04,0.67
1092.42,1.37,8.39,1.53
1092.47,1.02,9.06,1.41
1092.53,0.24,9.18,1.69
1092.58,0.31,9.06,1.8
1092.64,0.63,8.59,1.8
1092.69,0.71,8.75,1.65
1092.74,0.47,10.24,0.43
1092.80,1.49,11.22,2.55
1092.85,-1.02,10.98,2.75
1092.91,1.14,13.61,1.69
1092.96,1.69,11.57,1.69
1093.02,1.96,8.16,1.02
1093.07,2.16,9.53,0.2
1093.12,1.84,9.10,0.71
1093.18,1.53,9.14,0.47
1093.23,2.67,8.43,1.84
1093.29,2.04,8.24,2.94
1093.34,0.90,7.41,3.02
1093.39,1.45,6.43,3.53
1093.45,1.37,7.02,4.47
1093.50,0.59,8.12,5.69
1093.56,1.06,9.96,5.18
1093.61,1.92,10.36,7.22
1093.66,2.28,9.89,8.24
1093.72,4.79,8.83,3.65
1093.77,8.39,14.95,1.1
1093.82,3.41,3.30,1.73
1093.88,2.24,9.30,1.14
1093.93,2.35,8.04,2.12
1093.99,2.28,8.08,2.2
1094.04,0.27,8.28,2.2
1094.09,1.57,8.08,1.65
1094.15,2.35,8.63,0.82
1094.20,0.75,9.57,1.18
1094.26,0.39,9.53,1.57
1094.31,1.45,9.14,1.57
1094.36,1.61,10.40,2.04
1094.42,0.16,10.32,2.98
1094.47,-0.47,9.65,0.31
1094.53,1.65,12.32,2.35
1094.58,3.18,10.63,0.55
1094.63,2.59,8.51,1.14
1094.69,2.90,8.12,0.71
1094.74,1.57,9.92,1.57
1094.80,2.39,9.06,1.22
1094.85,2.63,8.79,1.84
1094.90,2.63,8.43,2.35
1094.96,1.49,7.22,2.9
1095.01,2.20,6.79,3.14
1095.06,2.39,7.22,4.08
1095.12,1.73,7.06,4.71
1095.17,0.08,8.43,5.26
1095.23,0.47,10.51,5.45
1095.28,2.31,10.16,7.69
1095.33,3.14,9.38,6.08
1095.39,4.90,8.75,2.51
1095.44,5.41,11.34,3.61
1095.49,2.00,4.82,0.82
1095.55,3.96,9.49,0.82
1095.60,2.24,9.53,0.82
1095.66,2.20,8.20,1.65
1095.71,0.94,8.98,0.35
1095.76,0.94,8.47,2.59
1095.82,0.00,8.79,2.12
1095.87,0.43,9.06,1.77
1095.93,1.26,9.26,1.61
1095.98,1.14,9.14,1.77
1096.03,1.33,8.94,1.61
1096.09,1.22,10.00,1.92
1096.14,0.08,10.63,3.73
1096.19,1.14,10.16,1.41
1096.25,2.31,11.89,1.41
1096.30,3.57,12.36,-0.47
1096.35,2.59,7.81,0.78
1096.41,2.20,7.53,0.47
1096.46,1.49,9.69,0.55
1096.52,2.24,9.06,0.94
1096.57,2.98,8.59,1.26
1096.62,2.75,9.18,1.57
1096.68,1.80,7.45,2.94
1096.73,1.61,7.65,3.1
1096.78,1.65,7.02,3.69
1096.84,0.94,7.26,4.59
1096.89,0.86,7.85,4.24
1096.94,1.69,9.18,5.14
1097.00,1.33,10.04,5.92
1097.05,0.31,8.59,6.83
1097.10,2.71,9.89,4.82
1097.16,6.28,10.71,2.04
1097.21,2.24,7.53,6.63
1097.26,2.31,7.49,2.24
1097.32,3.37,8.90,1.37
1097.37,2.55,5.77,3.06
1097.43,2.59,8.08,2.24
1097.48,0.98,8.75,1.77
1097.53,1.37,7.53,2.16
1097.59,1.02,8.55,1.65
1097.64,1.10,9.38,1.53
1097.69,0.43,9.34,1.77
1097.75,1.02,8.90,1.57
1097.80,1.18,8.71,1.37
1097.86,0.86,10.59,1.84
1097.91,-0.86,11.22,3.14
1097.96,0.24,12.04,-0.08
1098.02,1.73,12.79,1.33
1098.07,5.61,10.04,-0.08
1098.13,2.94,7.85,0.2
1098.18,1.37,8.83,1.33
1098.23,1.37,9.85,-0.35
1098.29,2.47,7.88,0.71
1098.34,3.18,8.47,2.08
1098.39,1.61,8.51,2.2
1098.45,0.00,6.39,3.45
1098.50,1.29,6.63,4.35
1098.55,1.80,7.49,4.94
1098.61,1.14,8.00,5.61
1098.66,1.77,9.26,5.57
1098.71,2.04,10.75,6.63
1098.77,3.33,9.18,6.24
1098.82,5.69,12.32,1.96
1098.88,2.59,5.77,3.14
1098.93,2.20,5.37,1.61
1098.98,2.63,9.30,1.22
1099.04,2.31,7.88,2.0
1099.09,1.57,8.55,1.88
1099.15,1.14,8.36,1.77
1099.20,0.63,8.59,2.28
1099.25,0.78,9.38,1.61
1099.31,0.47,9.30,1.61
1099.36,0.94,8.87,1.73
1099.41,1.02,9.10,1.49
1099.47,1.22,9.85,1.45
1099.52,0.94,10.94,2.55
1099.57,-0.51,10.94,3.22
1099.63,1.22,11.96,1.53
1099.68,0.78,11.18,1.69
1099.73,3.30,9.30,0.2
1099.79,2.71,7.96,0.0
1099.84,1.92,8.24,0.9
1099.89,1.53,9.69,0.98
1099.95,1.88,8.16,1.65
1100.00,2.90,7.81,2.2
1100.05,2.12,8.20,2.59
1100.11,1.45,7.06,2.9
1100.16,1.84,6.83,3.73
1100.21,1.22,7.57,4.43
1100.27,1.22,8.04,4.9
1100.32,1.45,9.06,5.1
1100.37,0.75,10.94,5.96
1100.43,2.98,11.22,5.57
1100.48,5.49,10.55,3.96
1100.54,4.55,9.89,4.04
1100.59,1.22,4.47,4.0
1100.64,3.26,9.65,0.43
1100.70,2.86,8.00,1.84
1100.75,1.92,8.39,1.61
1100.81,1.02,8.24,2.31
1100.86,0.82,8.39,2.28
1100.91,0.20,8.94,2.55
1100.97,0.75,8.94,1.92
1101.02,0.20,8.75,1.8
1101.07,0.27,8.90,1.84
1101.13,1.10,8.90,1.53
1101.18,1.57,10.43,2.24
1101.24,-1.88,12.00,2.63
1101.29,0.94,10.71,-0.94
1101.34,0.94,12.00,2.0
1101.40,5.06,10.94,-0.35
1101.45,1.80,8.08,1.29
1101.50,2.24,8.20,0.43
1101.56,2.00,9.81,0.86
1101.61,2.20,8.24,0.98
1101.67,3.02,8.51,1.88
1101.72,1.84,8.39,2.43
1101.77,0.82,6.79,3.26
1101.83,1.26,6.90,3.57
1101.88,1.41,6.75,4.16
1101.93,1.22,7.85,4.75
1101.99,1.96,10.12,6.12
1102.04,1.69,11.85,5.65
1102.09,2.00,8.55,7.26
1102.15,6.67,10.51,0.98
1102.20,5.73,11.73,4.04
1102.25,2.12,3.92,1.45
1102.31,2.24,10.63,0.35
1102.36,3.30,4.98,1.65
1102.42,2.28,8.08,1.77
1102.47,1.45,7.92,1.45
1102.52,1.10,8.36,1.69
