NAME:,walk_2_1.csv,,
EXPERIMENT TIME:,24/05/2022 15:42,,
ACTIVITY TYPE:,Walking,,
Count of actual steps:,110,,
,,,
Time [sec],ACC X,ACC Y,ACC Z
29.77,9.06,4.12,4.75
29.82,7.14,3.53,5.77
29.87,6.59,2.43,5.96
29.92,6.9,1.61,6.63
29.98,7.92,1.33,5.96
30.03,8.9,2.04,5.57
30.08,7.96,2.12,5.81
30.13,7.53,2.28,6.28
30.18,7.88,2.47,6.2
30.23,7.88,3.33,6.24
30.28,7.92,3.53,6.28
30.33,7.88,3.57,6
30.38,7.41,4.04,6.04
30.43,7.53,4.08,5.92
30.49,7.3,3.8,6.24
30.54,7.69,3.57,6.94
30.59,8.2,4.2,7.14
30.64,9.18,4.59,6.83
30.69,9.85,4.24,5.49
30.74,8.39,4.24,3.77
30.79,7.57,2.63,4.08
30.84,7.26,1.96,4.39
30.89,7.41,1.49,4.9
30.94,7.45,1.26,5.22
31,6.98,1.53,5.33
31.05,6.08,1.8,5.81
31.1,5.81,2.28,6.51
31.15,6.32,2.9,7.34
31.2,7.69,3.53,8.16
31.25,9.26,3.37,8.28
31.3,7.61,2.75,7.22
31.35,7.81,3.53,7.96
31.4,10.24,3.18,6.67
31.45,10.08,2.94,5.45
31.5,8.36,3.57,5.33
31.56,6.67,2.55,5.02
31.61,5.37,2.35,4.71
31.66,5.57,2.9,5.33
31.71,6.59,3.26,5.69
31.76,7.1,3.33,6.98
31.81,9.49,3.73,7.92
31.86,11.06,3.26,8.47
31.91,10.79,2.47,9.06
31.96,10.4,1.18,6.67
32.01,7.57,2.04,4.31
32.07,7.49,2.31,4.08
32.12,7.41,1.65,4.43
32.17,5.73,2.08,5.18
32.22,5.18,2.39,5.88
32.27,5.53,2.71,7.06
32.32,5.77,2.59,7.53
32.37,6.08,3.45,7.77
32.42,8.9,5.1,8
32.47,12.83,6.39,7.3
32.53,10.12,3.45,4.31
32.58,5.96,3.22,4.12
32.63,6.24,3.41,4.75
32.68,7.02,2.63,4.47
32.73,5.69,2.82,4.94
32.88,8.24,2.79,7.1
32.93,9.65,3.53,7.22
32.98,10.36,3.69,6.04
33.03,9.65,3.61,6.16
33.09,9.81,2.67,4.94
33.14,8.67,2.63,4.24
33.19,6.79,2.9,4.79
33.24,5.65,2.51,5.33
33.29,5.1,2.67,6.2
33.34,5.22,3.3,6.83
33.39,5.92,3.41,7.3
33.44,5.45,3.61,7.81
33.49,8.08,4.35,8.47
33.54,10.47,4.75,8.43
33.6,12.71,4.86,8.47
33.65,8.98,2.24,4.98
33.7,5.84,2.75,4.86
33.75,5.73,2.08,4.94
33.8,5.65,1.57,5.14
33.85,5.73,1.8,5.57
33.9,5.81,2.04,5.84
33.95,7.18,2.16,7.14
34,8.9,1.73,7.77
34.06,10,2.24,7.81
34.11,9.73,2.98,8.9
34.16,11.57,2.16,8.67
34.21,8.79,0.75,5.69
34.26,6.51,0.63,4.67
34.31,6.04,1.26,4.39
34.36,4.98,2.39,4.82
34.41,4.59,3.53,6.47
34.46,6.67,4.24,7.92
34.51,7.45,3.57,7.45
34.56,8.9,4.24,7.77
34.62,9.89,3.84,6.32
34.67,10.08,5.02,7.65
34.72,10.59,3.65,4.35
34.77,7.73,4,4.31
34.82,6.67,3.33,4.39
34.87,6.16,2.55,4.71
34.92,5.14,2.04,4.47
34.97,4.94,3.1,4.75
35.02,5.77,3.88,5.49
35.08,9.22,3.26,7.69
35.13,10.47,1.29,9.14
35.18,11.14,1.53,8.36
35.23,11.73,3.57,7.65
35.28,9.96,2.63,5.33
35.33,7.57,2.51,5.53
35.38,6.39,2.35,5.77
35.43,5.14,2.35,5.1
35.48,4.51,2.55,5.53
35.53,5.26,3.37,6.51
35.58,6,3.8,7.26
35.64,6.47,4.67,8.39
35.69,7.92,5.61,7.61
35.74,8.87,7.65,8.63
35.79,9.92,5.53,5.88
35.84,6.9,4.63,6.04
35.89,6.12,4,5.84
35.94,5.88,3.26,5.3
35.99,4.94,2.71,4.67
36.04,4.31,3.1,4.94
36.1,4.94,3.33,5.81
36.15,7.26,3.84,7.26
36.2,9.57,3.61,7.81
36.25,10.08,3.57,8.51
36.3,10.12,3.73,8.98
36.35,9.53,2.63,7.34
36.4,6.98,2.31,6.2
36.45,5.69,1.88,5.81
36.5,4.98,1.84,5.33
36.55,4.39,1.84,5.61
36.6,4.98,1.88,6.86
36.66,6.04,1.65,8.71
36.71,7.45,2.31,9.1
36.76,8.28,4,10.04
36.81,8.79,4.08,9.53
36.86,9.49,4.79,9.26
36.91,8.47,3.22,6.28
36.96,6.9,3.22,5.84
37.01,6.43,2.16,5.1
37.06,5.49,1.92,4.59
37.12,4.98,2,4.94
37.17,5.45,2.24,6
37.22,7.57,2.39,7.37
37.27,9.3,2.47,7.53
37.32,9.34,3.22,7.77
37.37,9.45,3.77,7.85
37.42,9.38,2.86,6.47
37.47,7.61,2.28,6.47
37.52,6.9,1.57,6.16
37.57,5.26,0.67,6.71
37.63,4.28,1.92,5.96
37.68,4.55,2.79,6.55
37.73,6.16,3.61,7.49
37.78,7.37,4.2,8.51
37.83,7.88,4.35,9.69
37.88,8.94,4.12,9.89
37.93,10.87,4,8.9
37.98,9.45,2.82,6.83
38.03,6.98,2.59,5.96
38.08,5.69,2.2,5.02
38.13,4.9,2.28,4.67
38.19,4.35,2.43,4.82
38.24,4.67,2.51,5.37
38.29,5.96,2.39,6.35
38.34,7.34,2.67,8.12
38.39,9.61,2.08,8.71
38.44,10.12,2.55,9.53
38.49,10.36,2.39,8.16
38.54,8.39,2.28,7.02
38.59,6.86,1.84,6.59
38.65,6.28,0.75,6.86
38.7,5.53,1.02,5.73
38.75,4.75,1.96,5.73
38.8,5.1,3.06,6.12
38.85,6.63,4.39,7.26
38.9,7.69,4.98,7.77
38.95,8.79,5.22,8.24
39,9.45,5.96,9.06
39.05,10.4,4.55,6.9
39.1,8.79,4.08,5.96
39.15,7.45,3.41,5.73
39.21,6.67,2.82,5.26
39.26,5.1,2.39,4.71
39.31,4.31,2.55,4.94
39.36,4.98,2.86,5.84
39.41,5.96,3.22,6.9
39.46,7.96,3.57,7.53
39.51,8.63,3.41,6.98
39.56,8.79,4.55,7.96
39.61,9.81,3.69,7.49
39.67,8.75,3.45,7.22
39.72,7.26,2.82,6.86
39.77,5.96,2.2,6.32
39.82,4.39,2.39,6.24
39.87,4.47,2.71,6.47
39.92,4.94,3.26,6.79
39.97,5.88,4.51,7.45
40.02,7.06,5.33,8.36
40.07,8.67,5.26,8.08
40.12,9.49,5.73,8.04
40.17,10.36,5.02,7.57
40.23,8.32,3.57,5.06
40.28,7.45,3.26,5.96
40.33,5.96,1.1,5.26
40.38,4.47,1.65,5.96
40.43,4.98,2.47,6.35
40.48,5.81,3.8,7.06
40.53,6.75,4.71,7.34
40.58,7.65,4.71,7.37
40.63,6.75,4.94,7.45
40.69,8.55,4.75,7.41
40.74,7.02,4.98,7.85
40.79,7.53,3.41,6.83
40.84,6.43,3.26,5.69
40.89,5.41,3.1,5.84
40.94,6.12,2.12,6.51
40.99,6.2,1.14,7.14
41.04,5.61,1.29,7.77
41.09,4.75,2.59,8.08
41.14,4.98,3.49,8.63
41.19,6.35,3.53,9.69
41.25,8.87,4.59,11.22
41.3,11.34,2.31,7.69
41.35,9.65,2.59,5.69
41.4,6.71,2.16,7.22
41.45,6.98,1.45,7.1
41.5,6.39,1.26,6.12
41.55,4.94,1.29,5.22
41.6,4.35,1.69,5.37
41.65,4.47,1.65,6.28
41.71,5.65,1.77,7.22
41.76,7.53,2.55,9.92
41.81,10.28,2.59,8.59
41.86,11.38,2.94,9.34
41.91,10.16,1.18,7.26
41.96,7.14,0.43,7.45
42.01,5.33,0.04,6.39
42.06,4.47,0.31,6.47
42.11,4.43,0.86,6.94
42.16,6,1.06,7.34
42.22,6.98,1.22,8.36
42.27,7.85,1.88,10.08
42.32,8.12,1.92,10.28
42.37,10.28,2.51,10.08
42.42,9.57,1.88,5.84
42.47,7.02,1.69,6.55
42.52,7.18,0.82,5.26
42.57,6.59,0.24,4.98
42.62,5.14,0.71,5.02
42.67,5.18,1.41,5.65
42.72,6.86,1.1,6.71
42.78,8.43,1.53,8.43
42.83,9.85,1.18,8.47
42.88,10.87,1.26,9.18
42.93,9.89,0.94,8.12
42.98,8.75,0.71,6.28
43.03,8.36,0.63,6.43
43.08,7.53,-0.35,6.08
43.13,5.57,0,6.39
43.18,4.94,0.71,6.12
43.24,5.45,1.88,6.47
43.29,5.84,2,7.53
43.34,6.55,2.28,8.75
43.39,8.55,2.2,9.41
43.44,10.2,2.79,10.43
43.49,12.98,1.49,9.14
43.54,9.34,1.65,5.65
43.59,6.83,2,5.73
43.64,6.67,1.45,4.82
43.69,6.12,1.29,4.59
43.74,4.98,1.41,4.79
43.8,5.57,1.14,5.92
43.85,6.75,0.94,7.37
43.9,8.63,0.78,8.36
43.95,10,1.18,8.94
44,11.45,1.57,8.98
44.05,10.98,1.37,7.73
44.1,8.71,0.9,6.79
44.15,6.94,0,6.32
44.2,5.61,-0.35,5.69
44.26,4.94,0.12,5.77
44.31,4.82,0.55,6.35
44.36,5.96,1.1,7.61
44.41,7.06,1.77,8.79
44.46,6.43,2.35,9.81
44.51,8.36,2.43,10
44.56,10.4,3.77,11.34
44.61,10.63,2.31,7.06
44.66,7.06,2.59,6.59
44.71,6.2,2,5.73
44.76,5.45,1.02,5.3
44.82,4.59,1.29,5.37
44.87,4.43,1.26,6
44.92,5.65,1.29,7.14
44.97,7.61,1.41,8.32
45.02,9.81,2,8.9
45.07,11.02,2.59,8.47
45.12,9.69,3.3,9.3
45.17,9.06,1.69,6.04
45.22,5.77,1.18,5.88
45.28,5.96,1.33,6.12
45.33,6.32,0.63,6.24
45.38,5.06,0.31,6.71
45.43,4.67,1.33,7.88
45.48,5.26,2.51,8.9
45.53,6.59,2.86,10.08
45.58,9.38,2.04,10.71
45.63,11.53,3.18,10.36
45.68,9.96,1.57,6.75
45.73,7.26,1.26,6.08
45.78,6.35,0.86,5.45
45.84,5.49,1.1,4.94
45.89,4.51,1.73,4.75
45.94,4.31,1.77,4.82
45.99,5.88,1.73,6.04
46.04,8.2,1.57,8.36
46.09,10.4,-0.04,9.57
46.14,11.02,-1.57,11.1
46.19,10.83,-0.35,9.1
46.24,9.73,0.35,6.55
46.29,8.59,0.04,5.1
46.35,6.28,-0.35,4.79
46.4,4.47,0.16,5.02
46.45,4,0.51,5.33
46.5,4.63,-0.08,6.51
46.55,5.37,-0.47,8.16
46.6,8.08,-1.57,10.12
46.65,10.12,-0.78,10.36
46.7,13.26,-0.9,11.06
46.75,12.08,0.04,8.12
46.81,7.92,1.49,6.63
46.86,6.71,1.22,5.33
46.91,5.96,0.59,5.18
46.96,5.26,0.55,4.63
47.01,5.33,0.59,4.79
47.06,6.67,0.71,5.65
47.11,8.04,-0.24,7.22
47.16,8.94,-0.39,7.77
47.21,11.65,1.73,8.04
47.26,12.91,3.92,10.43
47.31,10.63,1.29,6.35
47.37,8.2,0.71,4.86
47.42,6.28,-0.55,4.55
47.47,4.55,-0.31,4.94
47.52,4.31,0.08,5.53
47.57,4.35,0.78,6.55
47.62,5.26,1.69,8.08
47.67,7.49,1.53,9.65
47.72,8.16,1.57,11.02
47.77,10.04,2.08,10.28
47.83,10.87,2.75,9.22
47.88,8.9,2.24,6.12
47.93,7.53,2,5.81
47.98,7.26,0.86,5.3
48.03,6.71,0.55,5.26
48.08,5.69,0.63,4.94
48.13,5.73,0.31,5.65
48.18,6.59,-0.08,6.71
48.23,7.57,-0.16,7.69
48.28,9.77,-0.2,8.28
48.33,10.55,1.96,9.06
48.39,9.77,3.49,7.14
48.44,8.47,3.37,6.67
48.49,7.61,2.51,6.47
48.54,6.75,1.02,6.28
48.59,5.37,1.33,5.61
48.64,4.51,1.29,6.12
48.69,4.16,1.37,7.18
48.74,5.02,1.73,8.79
48.79,7.34,2.47,9.53
48.85,8.75,3.14,10.55
48.9,11.92,3.69,11.57
48.95,10.79,1.92,7.81
49,7.22,2,6
49.05,6.79,2.47,4.86
49.1,6.2,2.51,4.86
49.15,5.26,1.92,4.63
49.2,5.06,1.77,5.37
49.25,6.47,1.41,6.55
49.3,8.08,0.86,8.04
49.35,8.83,0.51,8.63
49.41,10.51,1.1,9.41
49.46,12.2,1.22,9.02
49.51,10.16,0.75,6.75
49.56,8.32,-0.08,6.24
49.61,6.2,-0.04,5.41
49.66,5.02,0.71,4.9
49.71,4.51,1.8,4.79
49.76,4.71,2.55,5.84
49.81,5.37,3.61,7.61
49.87,7.18,3.3,9.14
49.92,8.9,2.82,10.94
49.97,10,2.12,9.77
50.02,10.08,3.06,8.63
50.07,8.83,2.51,5.88
50.12,8.24,2.63,5.33
50.17,7.57,1.73,4.94
50.22,5.65,1.14,4.51
50.27,4.9,1.22,4.94
50.32,6.39,1.45,5.73
50.38,8.12,1.22,7.34
50.43,9.38,0.04,8
50.48,8.9,0.75,8.75
50.53,9.77,1.92,9.22
50.58,9.41,1.33,8.55
50.63,9.18,1.14,7.06
50.68,8.71,0.86,5.92
50.73,6.55,-0.16,5.41
50.78,4.75,0.94,4.86
50.83,4.39,1.37,5.57
50.88,4.63,1.61,6.67
50.94,5.22,2.59,7.96
50.99,7.37,3.88,8.47
51.04,7.69,5.53,8
51.09,10.94,6.39,7.85
51.14,10.9,4.2,6.47
51.19,9.45,3.84,6.08
51.24,8.83,3.02,5.22
51.29,6.55,2.31,4.51
51.34,4.86,1.49,4.39
51.4,4.98,1.8,4.59
51.45,5.77,2.12,5.14
51.5,6.67,2.2,6.51
51.55,7.96,2.35,8.16
51.6,9.57,3.37,8.71
51.65,10.94,3.96,9.1
51.7,10.08,2.94,7.49
51.75,8.32,2.51,7.02
51.8,7.06,1.37,6
51.85,5.1,1.45,5.37
51.9,4.24,1.92,5.33
51.96,4.82,2.55,5.61
52.01,4.86,3.22,6.51
52.06,6.08,4.16,7.77
52.11,8.16,4.35,9.34
52.16,10.04,4.43,10
52.21,11.53,4.16,9.3
52.26,8.67,3.1,6.24
52.31,6.2,3.06,5.18
52.36,6.32,2.43,4.9
52.42,6.43,1.45,4.51
52.47,5.41,1.45,5.1
52.52,5.92,1.69,6
52.57,7.65,1.49,7.34
52.62,9.53,0.47,8.39
52.67,9.81,0.59,9.02
52.72,10.04,0.47,8.63
52.77,9.96,0.63,7.92
52.82,9.06,0.51,7.02
52.87,8.08,-0.27,6.79
52.92,6.71,-0.43,6.39
52.98,5.22,0.16,5.96
53.03,4.71,0.47,6.32
53.08,5.14,0.94,7.06
53.13,6.79,2.04,7.49
53.18,7.18,3.33,8.55
53.23,8.39,3.37,9.22
53.28,8.98,3.22,9.85
53.33,9.34,2.75,9.92
53.38,9.26,1.96,7.26
53.44,7.02,2.16,6.12
53.49,6,1.73,5.22
53.54,5.33,1.1,4.59
53.59,5.57,1.22,4.98
53.64,6.71,1.06,5.33
53.69,7.88,0.67,6.86
53.74,8.75,0.2,8.43
53.79,9.14,0.08,9.57
53.84,10.04,-0.27,10.59
53.89,11.92,-2.75,10.12
53.94,8.36,-2.24,7.14
54,7.34,-0.78,6.08
54.05,6.2,0.16,5.22
54.1,4.28,0.67,5.22
54.15,3.96,1.06,5.53
54.2,4.35,1.84,6.08
54.25,5.92,2.63,7.81
54.3,7.49,2.94,9.73
54.35,8.67,1.53,10.67
54.4,10.16,1.73,14
54.46,9.41,-0.75,7.22
54.51,6.79,1.61,5.57
54.56,6.12,0.75,4.9
54.71,7.18,2.16,5.84
54.76,9.14,1.53,6.47
54.81,8.47,0.75,7.45
54.86,9.14,0.2,7.85
54.91,10.63,1.1,8.9
54.97,11.06,1.37,8.51
55.02,9.77,1.41,6.28
55.07,7.88,0.98,5.18
55.12,6.51,0.9,5.06
55.17,5.22,0.75,5.1
55.22,4.79,0.78,5.77
55.27,4.98,1.37,6.9
55.32,5.69,2.43,8.08
55.37,7.02,2.43,8.9
55.42,8.71,2.39,9.65
55.47,11.73,2.24,10.08
55.53,10.43,0.86,6.86
55.58,6.83,1.49,5.77
55.63,5.88,1.29,5.41
55.68,6.24,0.75,5.65
55.73,5.57,0.12,5.3
55.78,5.49,0.59,6.16
55.83,6.71,0.51,7.3
55.88,8.04,0.82,8.36
55.93,9.1,1.1,8.87
55.99,9.89,1.26,9.18
56.04,10.24,1.1,8.79
56.09,9.61,1.18,7.3
56.14,8.51,1.06,6.47
56.19,7.53,0.35,5.88
56.24,5.33,0.51,5.41
56.29,4.16,0.82,5.37
56.34,4.63,1.37,5.81
56.39,5.77,2.24,6.71
56.44,7.06,3.22,8.28
56.49,9.06,2.94,9.53
56.55,10.4,1.84,9.22
56.6,10,2.35,10.2
56.65,10.2,0.71,7.1
56.7,7.61,2.35,5.92
56.75,6.79,2,5.02
56.8,6.24,1.14,4.79
56.85,4.75,1.06,4.98
56.9,4.71,1.18,6
56.95,6.35,1.18,7.02
57.01,7.81,1.29,8.2
57.06,9.06,0.71,9.02
57.11,11.38,1.06,10.04
57.16,13.22,1.06,8.12
57.21,9.41,1.84,6.43
57.26,7.65,0.86,6.39
57.31,7.02,0.12,6.71
57.36,5.02,0.67,6.39
57.41,3.92,1.06,6.12
57.46,3.8,1.18,6.79
57.51,3.88,1.53,7.41
57.57,5.88,2.35,7.49
57.62,7.18,2.12,9.1
57.67,10.67,1.29,11.02
57.72,10.98,0.94,11.26
57.77,9.49,0.35,6.94
57.82,7.49,2,5.53
57.87,7.18,1.57,4.86
57.92,6.43,0.86,4.9
57.97,5.49,0.86,5.3
58.03,6.04,0.75,6
58.08,7.49,0.27,7.34
58.13,8.51,-0.47,8.12
58.18,9.38,-0.39,8.75
58.23,10.94,-0.27,8.43
58.28,10.94,0.47,7.92
58.33,9.77,0.55,6.59
58.38,8.75,-0.43,5.73
58.43,6.63,-0.47,5.18
58.48,5.02,0.47,4.71
58.53,4.86,1.18,5.02
58.59,5.22,1.92,6.24
58.64,7.14,2.51,7.85
58.69,8.47,3.18,8.9
58.74,10.2,3.1,8.63
58.79,10.87,2.98,9.22
58.84,11.69,1.96,7.22
58.89,8.24,2.31,4.79
58.94,6.71,2.28,4.28
58.99,6.08,1.92,3.92
59.04,5.14,1.69,4.2
59.1,5.02,1.22,5.18
59.15,6.24,1.29,6.08
59.2,8.28,1.73,6.43
59.25,9.81,1.53,7.37
59.3,10.83,0.94,8
59.35,11.69,1.61,7.69
59.4,11.89,1.65,6.35
59.45,9.3,1.18,5.37
59.5,6.9,0.55,5.84
59.56,5.18,-0.08,4.63
59.61,4.39,0.78,5.49
59.66,4.9,1.33,6.47
59.71,6.28,2.51,7.73
59.76,8.24,2.98,8
59.81,8.63,3.77,9.06
59.86,9.34,4.04,9.14
59.91,9.73,2.79,8.16
59.96,8.39,2.2,7.14
60.01,7.3,1.88,6.08
60.06,5.61,1.53,5.06
60.12,4.86,1.29,5.18
60.17,4.75,1.14,5.45
60.22,5.84,1.02,6.63
60.27,6.94,0.59,7.85
60.32,8.32,0.63,8.79
60.37,10.83,0.78,8.28
60.42,10.63,1.65,7.81
60.47,8.83,2.08,6.55
60.52,8.94,1.84,6.28
60.58,8.12,0.78,6.2
60.63,6.32,0.55,5.73
60.68,4.98,0.94,5.53
60.73,4.9,1.29,6
60.78,6.08,1.92,6.9
60.83,7.96,2.71,7.96
60.88,10.32,2.79,8.16
60.93,11.26,3.53,8.63
60.98,12.43,2.67,8.47
61.03,10.32,1.57,4.55
61.08,8.12,2.43,4.04
61.14,7.22,1.45,4.2
61.19,5.53,1.06,4.28
61.24,4.31,1.45,5.02
61.29,5.65,1.45,6.43
61.34,7.88,1.45,7.77
61.39,10.51,0.94,7.96
61.44,11.34,1.84,7.49
61.49,10.28,2,7.3
61.54,9.73,1.73,6.9
61.6,9.41,0.55,5.69
61.65,6.83,0.24,6.12
61.7,4.86,0.59,5.84
61.75,4.04,1.02,5.65
61.8,4.67,2.24,6.39
61.85,5.81,3.61,7.49
61.9,7.57,4.39,8.16
61.95,9.41,4.08,9.14
62,11.45,3.37,10.08
62.05,14.12,2.43,8.87
62.1,9.3,2.43,5.73
62.16,6.16,2.47,5.02
62.21,5.65,2.04,4.94
62.26,5.3,1.41,4.98
62.31,4.67,1.96,5.18
62.36,5.06,1.77,5.81
62.41,6.24,1.65,7.14
62.46,7.57,1.88,8.04
62.51,9.81,2.79,8.28
62.56,11.77,3.45,8.2
62.62,11.65,2.86,7.18
62.67,9.61,2.08,6.12
62.72,7.49,0.98,6.55
62.77,6.28,0.86,6.12
62.82,4.39,2.12,5.61
62.87,3.41,2.39,5.49
62.92,3.45,3.26,6.75
62.97,5.61,4.43,7.69
63.02,7.92,5.37,7.96
63.07,7.81,7.18,8.59
63.13,9.53,8.08,9.57
63.18,10.32,5.1,6.16
63.23,7.18,4.98,5.53
63.28,6.16,4.51,4.86
63.33,5.96,3.96,4.63
63.38,4.86,2.94,4.75
63.43,4.31,2.31,4.94
63.48,4.71,2.98,6.35
63.53,6.75,3.33,7.53
63.58,8.47,3.49,7.96
63.63,10.04,4.39,8.04
63.69,10.4,5.18,8.04
63.74,9.45,4.59,6.04
63.79,7.69,3.92,5.49
63.84,6.55,2.35,5.3
63.89,4.94,1.77,4.71
63.94,3.41,2.43,5.22
63.99,3.8,3.02,6.12
64.04,5.77,4.2,7.26
64.09,8.36,4.86,7.1
64.14,8.51,5.88,8.16
64.2,9.61,5.69,8.47
64.25,10.83,4.47,7.45
64.3,9.02,3.61,6.28
64.35,7.57,2.47,5.37
64.4,6.71,2.43,4.9
64.45,5.53,1.8,4.67
64.5,5.1,1.84,4.75
64.55,5.61,2.16,5.41
64.6,7.26,2.94,6.28
64.65,9.92,2.67,6.79
64.71,10.04,3.1,7.69
64.76,10.08,3.33,7.45
64.81,9.34,3.57,7.41
64.86,9.18,2.67,6.2
64.91,7.65,1.65,5.84
64.96,6.08,1.29,5.45
65.01,5.1,1.18,5.3
65.06,4.59,1.29,5.33
65.11,4.55,2.43,6.24
65.17,6.43,2.98,7.1
65.22,8.71,4.04,7.88
65.27,9.34,4,8.2
65.32,12.04,4.79,10.28
65.37,11.06,1.77,5.84
65.42,7.53,2.94,5.53
65.47,7.53,2.16,4.55
65.52,6.75,2.59,4.24
65.57,4.94,2.51,4.35
65.62,5.06,2.55,4.82
65.68,7.02,2.75,6.12
65.73,8.87,2.71,7.14
65.78,9.57,1.8,7.73
65.83,10.47,1.02,8.32
65.88,10.75,0.67,7.81
65.93,9.14,0.98,6.39
65.98,7.73,0.98,5.69
66.03,7.18,0.43,5.65
66.08,6.08,0.55,5.33
66.13,5.45,1.45,5.73
66.18,6.39,2.08,5.88
66.24,7.34,3.41,7.02
66.29,9.26,3.41,7.37
66.34,10.43,2.9,7.81
66.39,11.34,2.9,8.59
66.44,10.9,0.78,5.69
66.49,7.53,2.04,4.51
66.54,7.1,2.63,4.35
66.59,7.41,2.12,4.12
66.64,6,2.12,4.67
66.69,5.61,2.43,5.18
66.75,6.51,2.16,6.08
66.8,8.24,2,7.53
66.85,10,1.45,7.49
66.9,10.71,2.04,7.41
66.95,12.04,2.2,6.67
67,10.24,2.35,5.02
67.05,8.16,2.43,4.94
67.1,7.18,1.18,5.22
67.15,5.65,0.71,5.3
67.21,4.94,1.73,5.45
67.26,5.3,2.51,5.96
67.31,6.67,3.26,6.83
67.36,8.83,3.92,7.65
67.41,9.3,4.08,7.81
67.46,10.2,4.24,7.69
67.51,11.02,2.86,5.88
67.56,8.08,2.82,5.69
67.61,8.2,2.47,5.61
67.66,7.88,1.96,4.94
67.71,5.96,2.39,4.63
67.77,5.02,2.75,4.51
67.82,5.61,2.86,5.26
67.87,6.94,2.94,6.71
67.92,7.96,2.79,7.81
67.97,8.79,2.82,8.04
68.02,10,2.79,7.81
68.07,10.08,2.47,6.71
68.12,8.04,2.47,5.65
68.17,7.45,1.49,5.57
68.22,7.69,0.35,5.22
68.28,5.81,1.14,5.22
68.33,5.26,1.77,5.57
68.38,6.43,1.65,6
68.43,7.45,2.55,7.57
68.48,8.51,3.26,7.53
68.53,10.51,3.3,8.04
68.58,12.91,2.98,9.3
68.63,12.55,0.43,6.24
68.68,8,1.65,5.14
68.74,7.22,1.37,4.59
68.79,6.47,0.71,4.51
68.84,5.26,0.55,4.35
68.89,5.22,1.29,5.1
68.94,6.47,1.37,5.84
68.99,8.2,1.73,6.59
69.04,8.94,1.49,7.37
69.09,9.96,1.14,8.24
69.14,10.94,1.18,8.63
69.19,11.1,0.39,6.98
69.25,8.32,1.06,6.04
69.3,5.92,0.35,5.84
69.35,5.22,0.31,5.33
69.4,5.37,0.71,5.61
69.45,6,1.02,6.08
69.5,6.86,1.65,6.67
69.55,7.65,2.71,7.18
69.6,8.55,3.26,8.9
69.65,10.4,2.98,9.81
69.7,12.4,1.96,9.53
69.75,9.92,1.33,5.88
69.81,7.37,2.43,5.26
69.86,7.3,1.73,4.75
69.91,6.12,1.02,4.9
69.96,4.67,0.94,5.06
70.01,4.98,1.26,5.96
70.06,7.02,1.22,7.26
70.11,8.63,1.41,7.96
70.16,10.63,1.45,8.12
70.21,10.94,1.06,8.12
70.26,9.53,1.37,7.65
70.32,9.26,1.41,7.1
70.37,8.59,0.51,6.35
70.42,6.83,-0.12,5.92
70.47,4.75,-0.04,5.69
70.52,4.08,0.51,6.24
70.57,5.26,1.29,6.79
70.62,7.06,2.94,7.45
70.67,8.55,4.04,8.39
70.72,9.77,2.82,8.98
70.78,10.67,2.86,10
70.83,11.1,0.98,7.02
70.88,8.32,1.96,5.53
70.93,7.3,2.43,5.14
70.98,6.71,1.33,4.63
71.03,4.98,1.1,4.79
71.08,5.22,1.41,5.41
71.13,6.63,1.49,6.47
71.18,8.79,1.06,7.49
71.23,9.81,0.47,8.55
71.29,10.16,-0.08,8.36
71.34,9.38,0.75,8.51
71.39,9.38,0.78,7.53
71.44,8.98,0.63,6.75
71.49,7.22,-0.08,6.24
71.54,5.57,-0.08,5.84
71.59,4.39,-0.35,5.73
71.64,4.79,-0.08,6.67
71.69,5.92,0.24,7.41
71.74,7.85,1.22,7.77
71.79,9.22,1.53,8.28
71.85,10.36,2,9.06
71.9,12.08,1.77,10.04
71.95,10.43,0.12,7.69
72,7.45,1.14,6.71
72.05,6.75,0.82,5.73
72.1,5.57,0.55,5.53
72.15,4.71,0.67,5.65
72.2,5.37,0.75,6.16
72.25,7.02,0.47,7.34
72.31,8.43,0.47,7.88
72.36,9.89,0.67,8.32
72.41,10.24,0.35,7.49
72.46,8.55,1.45,7.37
72.51,8.87,1.45,7.49
72.56,8.39,0.86,7.02
72.61,6.83,0.27,6.51
72.66,4.86,0.04,6.08
72.71,4,0.51,6.16
72.76,4.94,0.98,6.55
72.82,6.75,1.77,7.14
72.87,7.81,2.63,7.96
72.92,10.04,2.2,8.79
72.97,10.79,1.41,9.26
73.02,10.43,0.39,8.12
73.07,8.75,0.04,6.43
73.12,8.51,0.24,4.51
73.17,6.55,0.98,4.39
73.22,5.26,1.02,5.02
73.27,5.53,0.55,5.77
73.32,6.75,0.59,7.14
73.38,7.85,0.08,8.12
73.43,8.98,0.51,8.59
73.48,11.65,0.47,8.32
73.53,11.45,0,8
73.58,10.24,0.27,6.59
73.63,8.71,0,6.24
73.68,7.34,-0.71,5.53
73.73,5.3,0.16,5.41
73.78,4.51,0.12,5.22
73.83,4.31,0.12,5.77
73.89,5.33,0.82,7.06
73.94,7.57,2.47,8.36
73.99,8.94,2.98,9.1
74.04,10.4,2.75,9.61
74.09,12.43,1.53,9.45
74.14,10.24,0.31,7.06
74.19,8.12,0.9,6.2
74.24,7.06,0.75,5.57
74.29,5.57,0.2,4.86
74.35,4.9,0.39,5.06
74.4,5.14,0.55,5.77
74.45,7.26,0.59,7.49
74.5,9.18,0,8.63
74.55,9.96,0,8.55
74.6,9.96,0.55,8.55
74.65,9.69,0.82,8.16
74.7,8.98,0.47,7.26
74.75,7.34,0.12,6.71
74.8,6.51,-1.37,5.88
74.86,5.14,0.24,5.61
74.91,4.63,0.78,6.71
74.96,5.69,1.45,7.3
75.01,6.75,2.2,7.92
75.06,7.61,2.63,9.06
75.11,9.61,2.04,9.38
75.16,10.9,1.92,9.45
75.21,11.14,0.63,7.53
75.26,8.43,2.16,6.12
75.31,7.45,1.18,5.65
75.36,5.88,0.75,5.26
75.42,4.79,1.41,4.9
75.47,5.18,2.2,5.45
75.52,6.63,2.51,6.43
75.57,7.61,1.92,7.65
75.62,8.67,1.18,8.16
75.67,9.92,-1.8,10.94
75.72,10.75,-1.14,10.16
75.77,9.81,-0.78,7.45
75.82,7.88,0.2,6.32
75.87,6.39,0.04,6.04
75.93,5.18,0.12,5.53
75.98,4.51,0.39,5.84
76.03,4.75,0.59,6.75
76.08,6.43,1.1,7.92
76.13,8.75,1.37,8.79
76.18,8.94,1.77,9.38
76.23,9.89,1.14,9.3
76.28,11.14,0.78,9.57
76.33,10,0.67,6.2
76.39,8.39,1.45,5.22
76.44,6.86,0.35,5.41
76.49,4.98,0.27,4.59
76.54,4.35,1.33,4.82
76.59,5.81,1.41,5.84
76.64,7.96,0.98,7.26
76.69,9.89,0.67,8.71
76.74,11.49,1.22,8.43
76.79,10.87,1.33,8
76.84,9.53,1.41,7.3
76.89,8.75,0.63,6.55
76.95,7.57,-0.35,6.12
77,5.96,-0.59,5.77
77.05,4.75,0.24,5.3
77.1,4.47,0.82,5.53
77.15,5.73,0.94,6.47
77.2,7.92,1.84,6.86
77.25,8.83,2.82,7.73
77.3,10.83,2.16,8.47
77.35,11.61,1.57,9.73
77.4,11.34,-0.55,7.02
77.46,8.32,0.71,5.96
77.51,7.57,0.82,5.1
77.56,7.41,0.24,4.79
77.61,5.41,0.31,4.43
77.66,5.18,1.22,4.63
77.71,6.63,1.41,5.3
77.76,8.28,1.26,6.75
77.81,9.22,0.59,8.32
77.86,10.79,0.31,8.24
77.92,11.18,0.63,7.88
77.97,10.04,0.47,6.79
78.02,8.43,0.2,5.65
78.07,7.14,-0.39,5.06
78.12,6.79,-0.08,4.9
78.17,5.96,0.39,5.06
78.22,5.77,0.63,5.26
78.27,7.37,1.49,6.59
78.32,8.71,1.65,7.37
78.37,9.34,1.61,8.08
78.43,10.9,0.67,8.63
78.48,12.16,0.71,10.36
78.53,11.3,-1.8,6.28
78.58,7.26,0.63,4.47
78.63,7.02,1.22,4.55
78.68,7.18,0.27,4.75
78.73,6.08,0.43,4.9
78.78,5.61,0.86,5.37
78.83,6.35,0.9,6.28
78.88,7.81,0.94,7.18
78.93,9.02,0.71,7.77
78.99,10.67,0.94,8.67
79.04,12.43,0.12,8.32
79.09,10.9,-0.08,6.94
79.14,8.55,0.24,6.2
79.19,7.57,-0.55,5.41
79.24,5.88,0.04,5.73
79.29,5.14,0.2,5.49
79.34,4.71,0.82,5.81
79.39,5.1,1.45,6.94
79.44,6.47,1.41,7.69
79.5,8.39,1.61,8.67
79.55,10.04,1.41,8.39
79.6,9.85,2.63,10.47
79.65,11.77,1.06,8.32
79.7,9.69,2.04,6.63
79.75,7.18,1.53,5.65
79.8,5.37,1.18,4.9
79.85,4.28,1.22,4.75
79.9,4.51,1.29,5.26
79.96,5.96,0.9,6.47
80.01,7.06,0.82,7.49
80.06,8.24,0.9,8.51
80.11,10.47,0.63,8.75
80.16,11.3,0.71,9.06
80.21,10.51,0.9,7.69
80.26,8.63,0.39,7.57
80.31,6.86,-0.78,6.71
80.36,5.49,-0.67,5.33
80.41,3.8,-0.2,5.57
80.46,4.24,0.43,6.59
80.52,5.57,0.9,8.08
80.57,6.51,1.41,8.71
80.62,7.85,1.88,9.41
80.67,12.43,1.49,10.51
80.72,13.89,-0.16,6.86
80.77,9.81,1.18,5.57
80.82,7.3,0.98,5.1
80.87,6.47,0.71,4.98
80.92,5.96,0.51,4.75
80.97,5.53,0.63,5.06
81.03,5.53,0.67,5.88
81.08,6.75,0.12,7.06
81.13,7.92,-0.04,8.04
81.18,9.3,0.63,8.79
81.23,11.18,0.16,8.63
81.28,10.94,-0.04,8.43
81.33,10.04,0.35,7.26
81.38,8.32,0.2,5.92
81.43,6.35,0.51,4.82
81.49,4.86,0.71,5.1
81.54,4.55,0.94,5.77
81.59,5.22,2,6.83
81.64,8,2.35,7.41
81.69,9.53,3.18,8.55
81.74,10.59,2.55,9.02
81.79,11.38,2.43,9.65
81.84,10.67,0.71,6.43
81.89,8.16,2.2,5.73
81.94,7.14,1.61,4.98
82,6.51,0.78,4.9
82.05,5.02,1.14,4.75
82.1,5.02,1.57,5.45
82.15,6.55,1.26,6.71
82.2,8.43,0.71,7.96
82.25,9.73,0.59,8.39
82.3,10.83,0.94,8.04
82.35,10.98,1.61,7.81
82.4,10.08,1.8,7.14
82.46,9.18,0.55,6.67
82.51,7.26,-0.67,6.43
82.56,5.02,0.16,5.92
82.61,4.2,0.59,5.73
82.66,4.51,1.06,6.16
82.71,6.04,2.08,6.83
82.76,7.61,3.22,7.37
82.81,8.79,3.49,8.94
82.86,10.12,2.71,9.18
82.91,10.9,2.55,9.89
82.96,10.36,1.26,6.59
83.02,7.81,2.47,5.53
83.07,6.83,2.28,5.14
83.12,6.59,1.45,4.67
83.17,4.94,1.53,4.67
83.22,4.9,1.65,5.14
83.27,6.35,1.57,6.39
83.32,8.24,1.41,7.3
83.37,9.61,1.45,7.22
83.42,10.83,1.65,7.88
83.47,11.45,2.12,7.85
83.53,10.32,1.77,6.63
83.58,8.9,0.78,6
83.63,7.53,0.08,5.84
83.68,5.84,0.2,5.26
83.73,4.39,1.06,5.37
83.78,4.51,1.8,6.16
83.83,6.35,3.02,7.26
83.88,8,3.33,7.96
83.93,9.18,3.45,8.71
83.99,10.67,3.18,8.63
84.04,11.96,2.67,8.24
84.09,9.65,1.73,5.45
84.14,7.37,1.84,5.37
84.19,7.18,1.18,4.94
84.24,6.32,0.78,5.1
84.29,5.06,1.29,5.22
84.34,5.61,1.53,6.16
84.39,6.75,1.02,7.06
84.44,7.77,1.02,8
84.5,9.18,1.29,8.08
84.55,10,1.88,7.96
84.6,10.28,2.16,8.16
84.65,11.26,0.47,7.61
84.7,8.28,0.04,6.86
84.75,5.69,-0.12,6.16
84.8,4.86,0.12,5.92
84.85,4.75,0.2,6
84.9,4.71,0.63,6.9
84.95,5.33,0.63,7.22
85,8.75,2.39,7.1
85.06,9.26,0.78,10.2
85.11,11.1,-1.06,10.28
85.16,11.61,-0.47,10.4
85.21,10.16,-0.12,6.98
85.26,7.34,1.65,6.04
85.31,6.83,1.14,6.08
85.36,6.28,0.51,5.02
85.41,5.33,1.33,4.82
85.46,5.26,0.9,5.84
85.51,6.43,0.39,7.14
85.57,7.37,0.35,7.92
85.62,8.51,0.98,8.51
85.67,10.98,1.26,9.69
85.72,12.55,0.16,7.88
85.77,10.24,1.77,6.08
85.82,8.24,0.82,5.73
85.87,6.63,-0.2,6.16
85.92,4.98,-0.2,5.45
85.97,4.35,1.02,5.41
86.03,4.9,2.28,6
86.08,6.2,3.14,6.83
86.13,7.45,4.24,7.61
86.18,8.87,4.16,8.63
86.23,11.18,3.49,9.53
86.28,12.63,2.12,8.39
86.33,9.61,1.88,6.39
86.38,6.63,1.77,5.81
86.43,6.08,1.26,5.73
86.48,5.84,0.98,5.22
86.54,5.33,1.57,5.26
86.59,5.37,1.57,6
86.64,6.28,1.18,7.3
86.69,7.57,1.06,7.92
86.74,9.1,2.08,8.28
86.79,9.89,2.55,8.67
86.84,10.59,1.84,8.12
86.89,9.45,1.57,7.14
86.94,8.24,0.63,6.51
86.99,5.96,0.86,5.53
87.04,4.16,1.45,5.41
87.1,4.08,1.8,6.08
87.15,5.33,1.92,7.18
87.2,7.57,2.43,7.92
87.25,9.22,2.59,8.39
87.3,9.57,2.43,9.18
87.35,11.73,2.79,9.53
87.4,10.59,1.96,5.81
87.45,7.37,2.82,5.49
87.5,6.75,1.84,5.49
87.56,6.63,1.26,5.45
87.61,5.33,1.77,4.86
87.66,5.33,2.31,5.37
87.71,6.35,1.69,6.28
87.76,7.26,1.61,7.41
87.81,8.32,1.18,8.24
87.86,9.22,1.1,8.55
87.91,9.57,1.61,9.02
87.96,9.49,1.33,8.12
88.01,8.67,1.33,7.34
88.07,7.18,1.06,6.67
88.12,5.37,1.26,5.92
88.17,4.28,1.49,6.08
88.22,4.47,1.73,6.75
88.27,5.69,2.51,7.69
88.32,7.06,3.14,8.12
88.37,7.96,4.08,9.14
88.42,9.69,3.41,8.63
88.47,10.2,3.65,9.53
88.52,10.98,1.57,6.63
88.57,8.36,2.55,6.2
88.63,6.98,1.49,5.73
88.68,5.77,1.14,5.41
88.73,4.9,1.92,5.3
88.78,5.1,1.88,5.73
88.83,6.75,1.33,7.53
88.88,7.45,1.1,8.63
88.93,8.51,1.77,8.55
88.98,9.49,1.8,7.61
89.03,8.71,2.94,7.92
89.08,8.87,2.16,7.18
89.14,8.28,2.24,6.83
89.19,7.45,1.53,6.63
89.24,6.2,1.18,6.2
89.29,4.71,1.53,6.32
89.34,4.82,2,6.98
89.39,5.49,2.63,7.65
89.44,6.55,3.18,7.73
89.49,7.22,4.12,8.9
89.54,9.41,3.61,8.98
89.6,9.69,4.16,9.49
89.65,10.08,2.86,7.3
89.7,8.24,3.73,6.35
89.75,7.18,2.67,5.96
89.8,5.88,1.37,5.49
89.85,4.71,1.92,5.14
89.9,4.86,2.08,5.69
89.95,6.16,2,7.14
90,7.45,1.57,8.08
90.05,8.12,1.41,8.47
90.11,8.94,1.57,8.63
90.16,10.12,2.71,8.98
90.21,9.49,2.71,7.69
90.26,7.61,3.53,6.16
90.31,6.08,3.65,7.22
90.36,5.45,2.98,5.53
90.41,4.86,2.98,6
90.46,4.59,2.82,6.43
90.51,4.39,2.79,6.94
90.56,5.69,3.61,7.85
90.61,7.26,4.28,8.55
90.67,8.87,4.55,8.71
90.72,8.51,5.3,10.12
90.77,9.69,3.37,6.94
